"workerId","itemId","CONDITION_NO","ENCODING","ADVERBIAL_TYPE","KEY_CONDITION","ANSWER","ANSWER_LABEL","rt","time_elapsed","trial_index"
163,"t01_1",1,"t01","INSTR","PP>OBJ",3,"keine Tendenz",7145,294074,39
172,"t01_1",1,"t01","INSTR","PP>OBJ",4,"eher natürlich",8533,697507,65
150,"t01_1",1,"t01","INSTR","PP>OBJ",4,"eher natürlich",6108,1090696,101
149,"t01_1",1,"t01","INSTR","PP>OBJ",4,"eher natürlich",9778,685315,44
131,"t01_1",1,"t01","INSTR","PP>OBJ",4,"eher natürlich",6021,393307,45
148,"t01_1",1,"t01","INSTR","PP>OBJ",4,"eher natürlich",158284,1331230,61
135,"t01_1",1,"t01","INSTR","PP>OBJ",4,"eher natürlich",7277,588008,74
184,"t01_1",1,"t01","INSTR","PP>OBJ",2,"eher unnatürlich",7131,850685,93
160,"t01_1",1,"t01","INSTR","PP>OBJ",4,"eher natürlich",4625,401309,56
159,"t01_1",1,"t01","INSTR","PP>OBJ",3,"keine Tendenz",5020,474587,76
176,"t01_1",1,"t01","INSTR","PP>OBJ",2,"eher unnatürlich",4223,559838,64
165,"t01_1",1,"t01","INSTR","PP>OBJ",4,"eher natürlich",5569,429981,58
174,"t01_1",1,"t01","INSTR","PP>OBJ",4,"eher natürlich",20371,377991,41
162,"t01_1",1,"t01","INSTR","PP>OBJ",4,"eher natürlich",10536,145856,13
196,"t01_1",1,"t01","INSTR","PP>OBJ",5,"vollkommen natürlich",4556,241965,41
177,"t01_1",1,"t01","INSTR","PP>OBJ",4,"eher natürlich",5530,299128,26
166,"t01_1",1,"t01","INSTR","PP>OBJ",4,"eher natürlich",7823,468411,69
133,"t01_1",1,"t01","INSTR","PP>OBJ",3,"keine Tendenz",16133,821542,65
169,"t01_1",1,"t01","INSTR","PP>OBJ",5,"vollkommen natürlich",4810,362859,59
182,"t01_1",1,"t01","INSTR","PP>OBJ",4,"eher natürlich",8309,825859,86
134,"t01_1",1,"t01","INSTR","PP>OBJ",4,"eher natürlich",6769,540642,69
151,"t01_1",1,"t01","INSTR","PP>OBJ",2,"eher unnatürlich",8865,875063,104
190,"t01_1",1,"t01","INSTR","PP>OBJ",2,"eher unnatürlich",17021,196924,26
157,"t01_1",1,"t01","INSTR","PP>OBJ",4,"eher natürlich",5692,627892,61
161,"t01_1",1,"t01","INSTR","PP>OBJ",4,"eher natürlich",15443,555572,51
171,"t01_1",1,"t01","INSTR","PP>OBJ",5,"vollkommen natürlich",8757,584990,65
156,"t01_1",1,"t01","INSTR","PP>OBJ",4,"eher natürlich",9282,948377,96
194,"t01_1",1,"t01","INSTR","PP>OBJ",5,"vollkommen natürlich",8426,93681,9
203,"t01_2",2,"t01","INSTR","OBJ>PP",5,"vollkommen natürlich",5261,692068,66
138,"t01_2",2,"t01","INSTR","OBJ>PP",2,"eher unnatürlich",8600,256917,32
199,"t01_2",2,"t01","INSTR","OBJ>PP",4,"eher natürlich",19022,535389,39
130,"t01_2",2,"t01","INSTR","OBJ>PP",5,"vollkommen natürlich",14978,669354,52
185,"t01_2",2,"t01","INSTR","OBJ>PP",5,"vollkommen natürlich",9363,290455,33
137,"t01_2",2,"t01","INSTR","OBJ>PP",5,"vollkommen natürlich",16320,549909,67
201,"t01_2",2,"t01","INSTR","OBJ>PP",4,"eher natürlich",10197,698905,88
210,"t01_2",2,"t01","INSTR","OBJ>PP",4,"eher natürlich",11630,606638,52
206,"t01_2",2,"t01","INSTR","OBJ>PP",4,"eher natürlich",13840,392373,40
187,"t01_2",2,"t01","INSTR","OBJ>PP",4,"eher natürlich",5171,115533,15
136,"t01_2",2,"t01","INSTR","OBJ>PP",2,"eher unnatürlich",7278,341315,38
128,"t01_2",2,"t01","INSTR","OBJ>PP",4,"eher natürlich",8239,605673,52
183,"t01_2",2,"t01","INSTR","OBJ>PP",5,"vollkommen natürlich",7124,807592,56
179,"t01_2",2,"t01","INSTR","OBJ>PP",4,"eher natürlich",9671,154530,16
189,"t01_2",2,"t01","INSTR","OBJ>PP",4,"eher natürlich",14557,381261,31
215,"t01_2",2,"t01","INSTR","OBJ>PP",5,"vollkommen natürlich",6930,225894,29
213,"t01_2",2,"t01","INSTR","OBJ>PP",4,"eher natürlich",9659,1178522,102
200,"t01_2",2,"t01","INSTR","OBJ>PP",5,"vollkommen natürlich",18541,791470,68
181,"t01_2",2,"t01","INSTR","OBJ>PP",4,"eher natürlich",5910,779135,105
197,"t01_2",2,"t01","INSTR","OBJ>PP",5,"vollkommen natürlich",8656,1027088,89
168,"t01_2",2,"t01","INSTR","OBJ>PP",4,"eher natürlich",5895,805437,89
167,"t01_2",2,"t01","INSTR","OBJ>PP",4,"eher natürlich",9101,887686,100
132,"t01_2",2,"t01","INSTR","OBJ>PP",4,"eher natürlich",8086,67994,7
130,"t02_1",1,"t02","INSTR","PP>OBJ",3,"keine Tendenz",16434,173242,10
187,"t02_1",1,"t02","INSTR","PP>OBJ",5,"vollkommen natürlich",9460,801517,101
206,"t02_1",1,"t02","INSTR","PP>OBJ",4,"eher natürlich",6438,639859,69
181,"t02_1",1,"t02","INSTR","PP>OBJ",4,"eher natürlich",8453,131010,16
136,"t02_1",1,"t02","INSTR","PP>OBJ",4,"eher natürlich",7808,772342,89
210,"t02_1",1,"t02","INSTR","PP>OBJ",5,"vollkommen natürlich",18045,1216659,106
201,"t02_1",1,"t02","INSTR","PP>OBJ",4,"eher natürlich",12591,741264,93
167,"t02_1",1,"t02","INSTR","PP>OBJ",2,"eher unnatürlich",9784,149007,14
128,"t02_1",1,"t02","INSTR","PP>OBJ",4,"eher natürlich",7458,695573,60
189,"t02_1",1,"t02","INSTR","PP>OBJ",2,"eher unnatürlich",8668,615093,54
199,"t02_1",1,"t02","INSTR","PP>OBJ",5,"vollkommen natürlich",12927,370133,26
183,"t02_1",1,"t02","INSTR","PP>OBJ",4,"eher natürlich",9422,453933,29
213,"t02_1",1,"t02","INSTR","PP>OBJ",3,"keine Tendenz",11078,626491,52
200,"t02_1",1,"t02","INSTR","PP>OBJ",4,"eher natürlich",12143,436646,38
203,"t02_1",1,"t02","INSTR","PP>OBJ",5,"vollkommen natürlich",4618,800513,86
137,"t02_1",1,"t02","INSTR","PP>OBJ",5,"vollkommen natürlich",4620,290603,38
138,"t02_1",1,"t02","INSTR","PP>OBJ",3,"keine Tendenz",6974,579427,72
185,"t02_1",1,"t02","INSTR","PP>OBJ",4,"eher natürlich",9593,340140,38
132,"t02_1",1,"t02","INSTR","PP>OBJ",4,"eher natürlich",10478,453843,62
215,"t02_1",1,"t02","INSTR","PP>OBJ",5,"vollkommen natürlich",7566,373152,47
179,"t02_1",1,"t02","INSTR","PP>OBJ",4,"eher natürlich",11161,81403,7
168,"t02_1",1,"t02","INSTR","PP>OBJ",4,"eher natürlich",6130,713158,75
197,"t02_1",1,"t02","INSTR","PP>OBJ",5,"vollkommen natürlich",12553,773262,62
151,"t02_2",2,"t02","INSTR","OBJ>PP",4,"eher natürlich",7221,547096,66
184,"t02_2",2,"t02","INSTR","OBJ>PP",4,"eher natürlich",9846,112552,9
177,"t02_2",2,"t02","INSTR","OBJ>PP",4,"eher natürlich",6080,856584,95
150,"t02_2",2,"t02","INSTR","OBJ>PP",4,"eher natürlich",14459,895342,79
134,"t02_2",2,"t02","INSTR","OBJ>PP",5,"vollkommen natürlich",5410,721477,95
133,"t02_2",2,"t02","INSTR","OBJ>PP",4,"eher natürlich",15232,883809,71
194,"t02_2",2,"t02","INSTR","OBJ>PP",5,"vollkommen natürlich",8108,571086,64
162,"t02_2",2,"t02","INSTR","OBJ>PP",5,"vollkommen natürlich",10699,440037,45
190,"t02_2",2,"t02","INSTR","OBJ>PP",3,"keine Tendenz",6821,53374,7
157,"t02_2",2,"t02","INSTR","OBJ>PP",4,"eher natürlich",5060,376632,35
156,"t02_2",2,"t02","INSTR","OBJ>PP",4,"eher natürlich",10326,320133,25
171,"t02_2",2,"t02","INSTR","OBJ>PP",5,"vollkommen natürlich",9004,245793,25
169,"t02_2",2,"t02","INSTR","OBJ>PP",5,"vollkommen natürlich",5575,75045,8
131,"t02_2",2,"t02","INSTR","OBJ>PP",4,"eher natürlich",6577,475217,55
148,"t02_2",2,"t02","INSTR","OBJ>PP",4,"eher natürlich",10581,1911454,96
165,"t02_2",2,"t02","INSTR","OBJ>PP",4,"eher natürlich",6415,647989,95
182,"t02_2",2,"t02","INSTR","OBJ>PP",5,"vollkommen natürlich",28560,1021190,99
176,"t02_2",2,"t02","INSTR","OBJ>PP",5,"vollkommen natürlich",5563,191766,17
172,"t02_2",2,"t02","INSTR","OBJ>PP",4,"eher natürlich",10052,91931,7
160,"t02_2",2,"t02","INSTR","OBJ>PP",4,"eher natürlich",5589,86898,9
149,"t02_2",2,"t02","INSTR","OBJ>PP",5,"vollkommen natürlich",8604,874482,59
174,"t02_2",2,"t02","INSTR","OBJ>PP",4,"eher natürlich",5907,507614,58
135,"t02_2",2,"t02","INSTR","OBJ>PP",2,"eher unnatürlich",9271,615772,77
163,"t02_2",2,"t02","INSTR","OBJ>PP",2,"eher unnatürlich",4916,148827,19
159,"t02_2",2,"t02","INSTR","OBJ>PP",4,"eher natürlich",6825,206250,30
166,"t02_2",2,"t02","INSTR","OBJ>PP",5,"vollkommen natürlich",3485,282685,48
196,"t02_2",2,"t02","INSTR","OBJ>PP",4,"eher natürlich",3903,490097,86
161,"t02_2",2,"t02","INSTR","OBJ>PP",5,"vollkommen natürlich",14942,897029,78
163,"t03_1",1,"t03","INSTR","PP>OBJ",3,"keine Tendenz",8573,533364,74
196,"t03_1",1,"t03","INSTR","PP>OBJ",4,"eher natürlich",24962,456723,79
174,"t03_1",1,"t03","INSTR","PP>OBJ",4,"eher natürlich",8834,729875,92
150,"t03_1",1,"t03","INSTR","PP>OBJ",4,"eher natürlich",6356,1019563,92
160,"t03_1",1,"t03","INSTR","PP>OBJ",4,"eher natürlich",3628,550670,78
184,"t03_1",1,"t03","INSTR","PP>OBJ",4,"eher natürlich",10387,300512,25
148,"t03_1",1,"t03","INSTR","PP>OBJ",4,"eher natürlich",8062,1710623,82
169,"t03_1",1,"t03","INSTR","PP>OBJ",4,"eher natürlich",5983,164727,23
182,"t03_1",1,"t03","INSTR","PP>OBJ",4,"eher natürlich",6862,318102,29
161,"t03_1",1,"t03","INSTR","PP>OBJ",4,"eher natürlich",12912,1192397,100
134,"t03_1",1,"t03","INSTR","PP>OBJ",2,"eher unnatürlich",7922,323644,42
131,"t03_1",1,"t03","INSTR","PP>OBJ",2,"eher unnatürlich",6042,363568,41
165,"t03_1",1,"t03","INSTR","PP>OBJ",4,"eher natürlich",5996,267656,31
172,"t03_1",1,"t03","INSTR","PP>OBJ",4,"eher natürlich",9781,837914,76
159,"t03_1",1,"t03","INSTR","PP>OBJ",4,"eher natürlich",5305,458777,73
177,"t03_1",1,"t03","INSTR","PP>OBJ",4,"eher natürlich",6593,882177,98
166,"t03_1",1,"t03","INSTR","PP>OBJ",5,"vollkommen natürlich",4523,198508,32
162,"t03_1",1,"t03","INSTR","PP>OBJ",5,"vollkommen natürlich",5948,671185,75
151,"t03_1",1,"t03","INSTR","PP>OBJ",4,"eher natürlich",10663,596320,72
171,"t03_1",1,"t03","INSTR","PP>OBJ",4,"eher natürlich",4810,634052,72
194,"t03_1",1,"t03","INSTR","PP>OBJ",4,"eher natürlich",5703,744670,81
149,"t03_1",1,"t03","INSTR","PP>OBJ",4,"eher natürlich",6179,349369,15
133,"t03_1",1,"t03","INSTR","PP>OBJ",3,"keine Tendenz",19177,1230715,102
190,"t03_1",1,"t03","INSTR","PP>OBJ",1,"vollkommen unnatürlich",6295,173924,24
176,"t03_1",1,"t03","INSTR","PP>OBJ",2,"eher unnatürlich",17669,308270,29
156,"t03_1",1,"t03","INSTR","PP>OBJ",2,"eher unnatürlich",4615,673623,63
157,"t03_1",1,"t03","INSTR","PP>OBJ",4,"eher natürlich",7355,690237,71
135,"t03_1",1,"t03","INSTR","PP>OBJ",2,"eher unnatürlich",7300,365721,46
137,"t03_2",2,"t03","INSTR","OBJ>PP",5,"vollkommen natürlich",7306,113079,14
197,"t03_2",2,"t03","INSTR","OBJ>PP",5,"vollkommen natürlich",8284,843039,69
128,"t03_2",2,"t03","INSTR","OBJ>PP",4,"eher natürlich",9716,1052236,93
200,"t03_2",2,"t03","INSTR","OBJ>PP",5,"vollkommen natürlich",9678,366247,31
181,"t03_2",2,"t03","INSTR","OBJ>PP",4,"eher natürlich",7432,199953,26
199,"t03_2",2,"t03","INSTR","OBJ>PP",4,"eher natürlich",11135,306509,22
187,"t03_2",2,"t03","INSTR","OBJ>PP",4,"eher natürlich",9768,87333,10
136,"t03_2",2,"t03","INSTR","OBJ>PP",4,"eher natürlich",7009,885370,104
185,"t03_2",2,"t03","INSTR","OBJ>PP",4,"eher natürlich",6104,450908,52
138,"t03_2",2,"t03","INSTR","OBJ>PP",4,"eher natürlich",5850,707799,95
130,"t03_2",2,"t03","INSTR","OBJ>PP",3,"keine Tendenz",23465,122640,6
167,"t03_2",2,"t03","INSTR","OBJ>PP",4,"eher natürlich",10074,529641,56
203,"t03_2",2,"t03","INSTR","OBJ>PP",5,"vollkommen natürlich",16743,899131,101
179,"t03_2",2,"t03","INSTR","OBJ>PP",5,"vollkommen natürlich",11612,347372,38
210,"t03_2",2,"t03","INSTR","OBJ>PP",5,"vollkommen natürlich",12580,505173,43
201,"t03_2",2,"t03","INSTR","OBJ>PP",4,"eher natürlich",9531,164231,19
183,"t03_2",2,"t03","INSTR","OBJ>PP",4,"eher natürlich",7576,494915,32
132,"t03_2",2,"t03","INSTR","OBJ>PP",4,"eher natürlich",6299,604858,85
213,"t03_2",2,"t03","INSTR","OBJ>PP",4,"eher natürlich",20987,121054,8
168,"t03_2",2,"t03","INSTR","OBJ>PP",5,"vollkommen natürlich",9241,928036,104
206,"t03_2",2,"t03","INSTR","OBJ>PP",5,"vollkommen natürlich",4432,321063,32
215,"t03_2",2,"t03","INSTR","OBJ>PP",5,"vollkommen natürlich",6356,528627,65
189,"t03_2",2,"t03","INSTR","OBJ>PP",4,"eher natürlich",7188,893573,89
138,"t04_1",1,"t04","INSTR","PP>OBJ",2,"eher unnatürlich",4970,542371,66
183,"t04_1",1,"t04","INSTR","PP>OBJ",3,"keine Tendenz",8109,323589,21
200,"t04_1",1,"t04","INSTR","PP>OBJ",5,"vollkommen natürlich",5934,625134,54
210,"t04_1",1,"t04","INSTR","PP>OBJ",4,"eher natürlich",7158,367717,30
197,"t04_1",1,"t04","INSTR","PP>OBJ",5,"vollkommen natürlich",4936,637107,48
187,"t04_1",1,"t04","INSTR","PP>OBJ",5,"vollkommen natürlich",7677,630699,79
179,"t04_1",1,"t04","INSTR","PP>OBJ",5,"vollkommen natürlich",5495,845927,100
128,"t04_1",1,"t04","INSTR","PP>OBJ",5,"vollkommen natürlich",10011,140756,12
136,"t04_1",1,"t04","INSTR","PP>OBJ",5,"vollkommen natürlich",6323,685198,78
201,"t04_1",1,"t04","INSTR","PP>OBJ",5,"vollkommen natürlich",7461,56519,6
203,"t04_1",1,"t04","INSTR","PP>OBJ",5,"vollkommen natürlich",3359,742336,76
199,"t04_1",1,"t04","INSTR","PP>OBJ",4,"eher natürlich",15223,83782,6
130,"t04_1",1,"t04","INSTR","PP>OBJ",5,"vollkommen natürlich",10484,799058,64
132,"t04_1",1,"t04","INSTR","PP>OBJ",3,"keine Tendenz",7670,394315,54
137,"t04_1",1,"t04","INSTR","PP>OBJ",4,"eher natürlich",6824,713191,84
168,"t04_1",1,"t04","INSTR","PP>OBJ",5,"vollkommen natürlich",5869,302911,31
185,"t04_1",1,"t04","INSTR","PP>OBJ",4,"eher natürlich",4800,407978,48
206,"t04_1",1,"t04","INSTR","PP>OBJ",4,"eher natürlich",4906,830311,95
189,"t04_1",1,"t04","INSTR","PP>OBJ",4,"eher natürlich",6235,628789,56
215,"t04_1",1,"t04","INSTR","PP>OBJ",5,"vollkommen natürlich",4958,812605,105
213,"t04_1",1,"t04","INSTR","PP>OBJ",4,"eher natürlich",8378,777640,67
181,"t04_1",1,"t04","INSTR","PP>OBJ",4,"eher natürlich",6791,161825,20
167,"t04_1",1,"t04","INSTR","PP>OBJ",3,"keine Tendenz",7650,581944,62
194,"t04_2",2,"t04","INSTR","OBJ>PP",5,"vollkommen natürlich",5498,530618,58
166,"t04_2",2,"t04","INSTR","OBJ>PP",5,"vollkommen natürlich",6268,368734,60
151,"t04_2",2,"t04","INSTR","OBJ>PP",5,"vollkommen natürlich",9422,768635,92
196,"t04_2",2,"t04","INSTR","OBJ>PP",5,"vollkommen natürlich",4682,255345,43
162,"t04_2",2,"t04","INSTR","OBJ>PP",5,"vollkommen natürlich",5495,328201,33
133,"t04_2",2,"t04","INSTR","OBJ>PP",5,"vollkommen natürlich",5972,1097961,90
171,"t04_2",2,"t04","INSTR","OBJ>PP",5,"vollkommen natürlich",8013,561532,62
150,"t04_2",2,"t04","INSTR","OBJ>PP",4,"eher natürlich",22837,234814,16
176,"t04_2",2,"t04","INSTR","OBJ>PP",5,"vollkommen natürlich",6579,380190,39
169,"t04_2",2,"t04","INSTR","OBJ>PP",5,"vollkommen natürlich",3825,393261,65
161,"t04_2",2,"t04","INSTR","OBJ>PP",5,"vollkommen natürlich",7157,1243489,104
190,"t04_2",2,"t04","INSTR","OBJ>PP",4,"eher natürlich",7084,562762,80
177,"t04_2",2,"t04","INSTR","OBJ>PP",4,"eher natürlich",8570,741976,80
157,"t04_2",2,"t04","INSTR","OBJ>PP",4,"eher natürlich",8985,871136,90
149,"t04_2",2,"t04","INSTR","OBJ>PP",2,"eher unnatürlich",64103,789643,49
163,"t04_2",2,"t04","INSTR","OBJ>PP",4,"eher natürlich",7770,592357,83
160,"t04_2",2,"t04","INSTR","OBJ>PP",5,"vollkommen natürlich",5495,188682,24
134,"t04_2",2,"t04","INSTR","OBJ>PP",4,"eher natürlich",5197,82806,8
131,"t04_2",2,"t04","INSTR","OBJ>PP",4,"eher natürlich",11176,551045,64
159,"t04_2",2,"t04","INSTR","OBJ>PP",4,"eher natürlich",9372,65053,7
172,"t04_2",2,"t04","INSTR","OBJ>PP",4,"eher natürlich",9623,956353,90
174,"t04_2",2,"t04","INSTR","OBJ>PP",4,"eher natürlich",5308,689703,87
165,"t04_2",2,"t04","INSTR","OBJ>PP",4,"eher natürlich",4898,528117,74
156,"t04_2",2,"t04","INSTR","OBJ>PP",5,"vollkommen natürlich",10364,629467,58
148,"t04_2",2,"t04","INSTR","OBJ>PP",5,"vollkommen natürlich",6803,1932630,99
182,"t04_2",2,"t04","INSTR","OBJ>PP",5,"vollkommen natürlich",8126,157484,14
184,"t04_2",2,"t04","INSTR","OBJ>PP",4,"eher natürlich",6615,268669,21
135,"t04_2",2,"t04","INSTR","OBJ>PP",4,"eher natürlich",7383,275115,34
169,"t05_1",1,"t05","INSTR","PP>OBJ",5,"vollkommen natürlich",8754,533661,92
149,"t05_1",1,"t05","INSTR","PP>OBJ",4,"eher natürlich",9077,328870,12
157,"t05_1",1,"t05","INSTR","PP>OBJ",2,"eher unnatürlich",7737,316401,27
182,"t05_1",1,"t05","INSTR","PP>OBJ",4,"eher natürlich",11086,339061,31
174,"t05_1",1,"t05","INSTR","PP>OBJ",4,"eher natürlich",4113,484591,55
163,"t05_1",1,"t05","INSTR","PP>OBJ",2,"eher unnatürlich",3621,241615,32
161,"t05_1",1,"t05","INSTR","PP>OBJ",5,"vollkommen natürlich",10985,701429,63
196,"t05_1",1,"t05","INSTR","PP>OBJ",5,"vollkommen natürlich",4824,351448,60
159,"t05_1",1,"t05","INSTR","PP>OBJ",4,"eher natürlich",6388,134675,17
156,"t05_1",1,"t05","INSTR","PP>OBJ",4,"eher natürlich",9992,709479,67
160,"t05_1",1,"t05","INSTR","PP>OBJ",4,"eher natürlich",8442,317848,44
162,"t05_1",1,"t05","INSTR","PP>OBJ",4,"eher natürlich",11755,120330,10
194,"t05_1",1,"t05","INSTR","PP>OBJ",5,"vollkommen natürlich",5342,280784,31
135,"t05_1",1,"t05","INSTR","PP>OBJ",4,"eher natürlich",5630,470044,59
151,"t05_1",1,"t05","INSTR","PP>OBJ",5,"vollkommen natürlich",6349,87081,9
190,"t05_1",1,"t05","INSTR","PP>OBJ",3,"keine Tendenz",4822,378611,53
133,"t05_1",1,"t05","INSTR","PP>OBJ",3,"keine Tendenz",10288,850544,68
148,"t05_1",1,"t05","INSTR","PP>OBJ",2,"eher unnatürlich",7132,1492406,73
171,"t05_1",1,"t05","INSTR","PP>OBJ",4,"eher natürlich",7060,454400,49
131,"t05_1",1,"t05","INSTR","PP>OBJ",5,"vollkommen natürlich",5790,497551,58
134,"t05_1",1,"t05","INSTR","PP>OBJ",4,"eher natürlich",8586,120028,12
184,"t05_1",1,"t05","INSTR","PP>OBJ",4,"eher natürlich",6018,170988,16
176,"t05_1",1,"t05","INSTR","PP>OBJ",4,"eher natürlich",4932,527203,59
177,"t05_1",1,"t05","INSTR","PP>OBJ",4,"eher natürlich",5208,705976,75
150,"t05_1",1,"t05","INSTR","PP>OBJ",4,"eher natürlich",5687,921167,82
165,"t05_1",1,"t05","INSTR","PP>OBJ",4,"eher natürlich",5652,357768,46
172,"t05_1",1,"t05","INSTR","PP>OBJ",4,"eher natürlich",6755,1022112,98
166,"t05_1",1,"t05","INSTR","PP>OBJ",5,"vollkommen natürlich",3947,232285,38
203,"t05_2",2,"t05","INSTR","OBJ>PP",5,"vollkommen natürlich",5724,278134,40
167,"t05_2",2,"t05","INSTR","OBJ>PP",5,"vollkommen natürlich",6023,460522,49
179,"t05_2",2,"t05","INSTR","OBJ>PP",5,"vollkommen natürlich",6390,775680,91
213,"t05_2",2,"t05","INSTR","OBJ>PP",4,"eher natürlich",7976,384552,30
185,"t05_2",2,"t05","INSTR","OBJ>PP",5,"vollkommen natürlich",5743,497414,59
128,"t05_2",2,"t05","INSTR","OBJ>PP",4,"eher natürlich",5434,482493,41
168,"t05_2",2,"t05","INSTR","OBJ>PP",5,"vollkommen natürlich",5469,726739,78
130,"t05_2",2,"t05","INSTR","OBJ>PP",5,"vollkommen natürlich",11036,980785,80
206,"t05_2",2,"t05","INSTR","OBJ>PP",5,"vollkommen natürlich",7540,167479,15
215,"t05_2",2,"t05","INSTR","OBJ>PP",5,"vollkommen natürlich",5220,442107,56
136,"t05_2",2,"t05","INSTR","OBJ>PP",4,"eher natürlich",10522,412297,46
210,"t05_2",2,"t05","INSTR","OBJ>PP",5,"vollkommen natürlich",8694,869445,76
132,"t05_2",2,"t05","INSTR","OBJ>PP",5,"vollkommen natürlich",6964,711619,99
199,"t05_2",2,"t05","INSTR","OBJ>PP",5,"vollkommen natürlich",11167,590869,43
200,"t05_2",2,"t05","INSTR","OBJ>PP",5,"vollkommen natürlich",11287,1119189,99
197,"t05_2",2,"t05","INSTR","OBJ>PP",5,"vollkommen natürlich",15095,385371,25
138,"t05_2",2,"t05","INSTR","OBJ>PP",4,"eher natürlich",9831,659082,85
187,"t05_2",2,"t05","INSTR","OBJ>PP",5,"vollkommen natürlich",8834,200152,25
183,"t05_2",2,"t05","INSTR","OBJ>PP",4,"eher natürlich",25787,539277,34
189,"t05_2",2,"t05","INSTR","OBJ>PP",4,"eher natürlich",10221,871958,86
181,"t05_2",2,"t05","INSTR","OBJ>PP",5,"vollkommen natürlich",4952,429813,56
201,"t05_2",2,"t05","INSTR","OBJ>PP",5,"vollkommen natürlich",5124,828496,103
137,"t05_2",2,"t05","INSTR","OBJ>PP",5,"vollkommen natürlich",4299,176875,24
215,"t06_1",1,"t06","INSTR","PP>OBJ",5,"vollkommen natürlich",8319,61184,6
203,"t06_1",1,"t06","INSTR","PP>OBJ",4,"eher natürlich",5023,319183,44
210,"t06_1",1,"t06","INSTR","PP>OBJ",2,"eher unnatürlich",7133,462814,39
136,"t06_1",1,"t06","INSTR","PP>OBJ",4,"eher natürlich",11951,63071,6
199,"t06_1",1,"t06","INSTR","PP>OBJ",4,"eher natürlich",14263,1327989,100
189,"t06_1",1,"t06","INSTR","PP>OBJ",1,"vollkommen unnatürlich",12943,140718,10
181,"t06_1",1,"t06","INSTR","PP>OBJ",4,"eher natürlich",6331,48477,6
179,"t06_1",1,"t06","INSTR","PP>OBJ",2,"eher unnatürlich",7944,829106,97
213,"t06_1",1,"t06","INSTR","PP>OBJ",3,"keine Tendenz",7795,180415,14
137,"t06_1",1,"t06","INSTR","PP>OBJ",5,"vollkommen natürlich",9602,99333,12
187,"t06_1",1,"t06","INSTR","PP>OBJ",4,"eher natürlich",7979,242823,31
206,"t06_1",1,"t06","INSTR","PP>OBJ",4,"eher natürlich",5379,447524,47
167,"t06_1",1,"t06","INSTR","PP>OBJ",3,"keine Tendenz",6277,707787,78
128,"t06_1",1,"t06","INSTR","PP>OBJ",4,"eher natürlich",5536,1097865,99
185,"t06_1",1,"t06","INSTR","PP>OBJ",4,"eher natürlich",6676,477383,56
130,"t06_1",1,"t06","INSTR","PP>OBJ",5,"vollkommen natürlich",13873,952273,77
200,"t06_1",1,"t06","INSTR","PP>OBJ",5,"vollkommen natürlich",11022,689942,59
183,"t06_1",1,"t06","INSTR","PP>OBJ",4,"eher natürlich",14644,767773,51
201,"t06_1",1,"t06","INSTR","PP>OBJ",5,"vollkommen natürlich",5710,271391,34
168,"t06_1",1,"t06","INSTR","PP>OBJ",5,"vollkommen natürlich",9646,369546,39
138,"t06_1",1,"t06","INSTR","PP>OBJ",2,"eher unnatürlich",4306,644892,83
132,"t06_1",1,"t06","INSTR","PP>OBJ",4,"eher natürlich",5547,344372,47
197,"t06_1",1,"t06","INSTR","PP>OBJ",5,"vollkommen natürlich",11304,721688,56
148,"t06_2",2,"t06","INSTR","OBJ>PP",2,"eher unnatürlich",15188,1142463,57
171,"t06_2",2,"t06","INSTR","OBJ>PP",4,"eher natürlich",7813,546269,60
190,"t06_2",2,"t06","INSTR","OBJ>PP",4,"eher natürlich",6871,160842,22
177,"t06_2",2,"t06","INSTR","OBJ>PP",4,"eher natürlich",6185,226640,17
134,"t06_2",2,"t06","INSTR","OBJ>PP",4,"eher natürlich",19399,757500,99
166,"t06_2",2,"t06","INSTR","OBJ>PP",5,"vollkommen natürlich",5248,274986,46
157,"t06_2",2,"t06","INSTR","OBJ>PP",4,"eher natürlich",7479,332309,29
150,"t06_2",2,"t06","INSTR","OBJ>PP",4,"eher natürlich",5934,490069,40
174,"t06_2",2,"t06","INSTR","OBJ>PP",4,"eher natürlich",6464,143252,14
156,"t06_2",2,"t06","INSTR","OBJ>PP",5,"vollkommen natürlich",8452,855120,84
184,"t06_2",2,"t06","INSTR","OBJ>PP",5,"vollkommen natürlich",5543,742023,78
182,"t06_2",2,"t06","INSTR","OBJ>PP",4,"eher natürlich",18382,80049,6
151,"t06_2",2,"t06","INSTR","OBJ>PP",5,"vollkommen natürlich",6248,430665,53
161,"t06_2",2,"t06","INSTR","OBJ>PP",3,"keine Tendenz",14005,258680,23
196,"t06_2",2,"t06","INSTR","OBJ>PP",5,"vollkommen natürlich",5197,101874,14
169,"t06_2",2,"t06","INSTR","OBJ>PP",5,"vollkommen natürlich",4904,257153,40
133,"t06_2",2,"t06","INSTR","OBJ>PP",5,"vollkommen natürlich",13626,515614,43
131,"t06_2",2,"t06","INSTR","OBJ>PP",4,"eher natürlich",7398,818254,98
194,"t06_2",2,"t06","INSTR","OBJ>PP",5,"vollkommen natürlich",8262,305753,34
149,"t06_2",2,"t06","INSTR","OBJ>PP",5,"vollkommen natürlich",11351,939101,65
176,"t06_2",2,"t06","INSTR","OBJ>PP",5,"vollkommen natürlich",11872,886140,101
162,"t06_2",2,"t06","INSTR","OBJ>PP",5,"vollkommen natürlich",5203,635615,70
160,"t06_2",2,"t06","INSTR","OBJ>PP",4,"eher natürlich",6048,439706,62
172,"t06_2",2,"t06","INSTR","OBJ>PP",5,"vollkommen natürlich",10359,565220,51
165,"t06_2",2,"t06","INSTR","OBJ>PP",2,"eher unnatürlich",4381,584477,84
159,"t06_2",2,"t06","INSTR","OBJ>PP",4,"eher natürlich",5142,622105,100
163,"t06_2",2,"t06","INSTR","OBJ>PP",5,"vollkommen natürlich",9144,567768,79
135,"t06_2",2,"t06","INSTR","OBJ>PP",4,"eher natürlich",8308,649711,81
163,"t07_1",1,"t07","INSTR","PP>OBJ",2,"eher unnatürlich",7466,552729,77
157,"t07_1",1,"t07","INSTR","PP>OBJ",4,"eher natürlich",6930,705133,73
182,"t07_1",1,"t07","INSTR","PP>OBJ",4,"eher natürlich",6579,673777,66
149,"t07_1",1,"t07","INSTR","PP>OBJ",4,"eher natürlich",8712,435851,18
160,"t07_1",1,"t07","INSTR","PP>OBJ",4,"eher natürlich",5763,670438,95
133,"t07_1",1,"t07","INSTR","PP>OBJ",2,"eher unnatürlich",6550,179321,14
151,"t07_1",1,"t07","INSTR","PP>OBJ",4,"eher natürlich",5737,158175,20
156,"t07_1",1,"t07","INSTR","PP>OBJ",2,"eher unnatürlich",7516,416502,35
148,"t07_1",1,"t07","INSTR","PP>OBJ",5,"vollkommen natürlich",8141,1045095,50
172,"t07_1",1,"t07","INSTR","PP>OBJ",3,"keine Tendenz",9142,681094,63
162,"t07_1",1,"t07","INSTR","PP>OBJ",5,"vollkommen natürlich",8087,383982,39
177,"t07_1",1,"t07","INSTR","PP>OBJ",4,"eher natürlich",8602,455455,44
159,"t07_1",1,"t07","INSTR","PP>OBJ",4,"eher natürlich",9873,636872,102
135,"t07_1",1,"t07","INSTR","PP>OBJ",4,"eher natürlich",5803,226686,28
184,"t07_1",1,"t07","INSTR","PP>OBJ",4,"eher natürlich",5334,474161,43
169,"t07_1",1,"t07","INSTR","PP>OBJ",4,"eher natürlich",6403,136469,18
166,"t07_1",1,"t07","INSTR","PP>OBJ",4,"eher natürlich",4901,62910,10
134,"t07_1",1,"t07","INSTR","PP>OBJ",2,"eher unnatürlich",7966,237541,29
161,"t07_1",1,"t07","INSTR","PP>OBJ",5,"vollkommen natürlich",9143,122931,11
190,"t07_1",1,"t07","INSTR","PP>OBJ",3,"keine Tendenz",5759,596947,85
165,"t07_1",1,"t07","INSTR","PP>OBJ",4,"eher natürlich",6812,691017,102
174,"t07_1",1,"t07","INSTR","PP>OBJ",4,"eher natürlich",4675,784749,102
171,"t07_1",1,"t07","INSTR","PP>OBJ",4,"eher natürlich",6467,727239,82
150,"t07_1",1,"t07","INSTR","PP>OBJ",4,"eher natürlich",5060,800033,69
176,"t07_1",1,"t07","INSTR","PP>OBJ",2,"eher unnatürlich",6202,506991,55
194,"t07_1",1,"t07","INSTR","PP>OBJ",4,"eher natürlich",7950,796636,87
131,"t07_1",1,"t07","INSTR","PP>OBJ",3,"keine Tendenz",6745,229308,24
196,"t07_1",1,"t07","INSTR","PP>OBJ",5,"vollkommen natürlich",4540,476561,83
197,"t07_2",2,"t07","INSTR","OBJ>PP",5,"vollkommen natürlich",11119,1101450,98
167,"t07_2",2,"t07","INSTR","OBJ>PP",2,"eher unnatürlich",6846,631960,69
199,"t07_2",2,"t07","INSTR","OBJ>PP",5,"vollkommen natürlich",14110,1137269,85
138,"t07_2",2,"t07","INSTR","OBJ>PP",2,"eher unnatürlich",9011,388095,48
179,"t07_2",2,"t07","INSTR","OBJ>PP",5,"vollkommen natürlich",9511,406098,45
181,"t07_2",2,"t07","INSTR","OBJ>PP",5,"vollkommen natürlich",7492,717461,95
201,"t07_2",2,"t07","INSTR","OBJ>PP",2,"eher unnatürlich",8957,396383,50
130,"t07_2",2,"t07","INSTR","OBJ>PP",5,"vollkommen natürlich",14319,392058,28
200,"t07_2",2,"t07","INSTR","OBJ>PP",5,"vollkommen natürlich",10685,643158,56
128,"t07_2",2,"t07","INSTR","OBJ>PP",4,"eher natürlich",17854,577378,49
137,"t07_2",2,"t07","INSTR","OBJ>PP",5,"vollkommen natürlich",7974,856631,101
189,"t07_2",2,"t07","INSTR","OBJ>PP",2,"eher unnatürlich",6750,762725,71
203,"t07_2",2,"t07","INSTR","OBJ>PP",4,"eher natürlich",5644,148681,20
215,"t07_2",2,"t07","INSTR","OBJ>PP",5,"vollkommen natürlich",6450,406682,51
210,"t07_2",2,"t07","INSTR","OBJ>PP",4,"eher natürlich",6405,962711,85
183,"t07_2",2,"t07","INSTR","OBJ>PP",4,"eher natürlich",16050,198931,12
213,"t07_2",2,"t07","INSTR","OBJ>PP",4,"eher natürlich",9829,978232,84
185,"t07_2",2,"t07","INSTR","OBJ>PP",5,"vollkommen natürlich",4645,537723,65
206,"t07_2",2,"t07","INSTR","OBJ>PP",3,"keine Tendenz",7328,723980,80
136,"t07_2",2,"t07","INSTR","OBJ>PP",4,"eher natürlich",6465,860285,100
132,"t07_2",2,"t07","INSTR","OBJ>PP",4,"eher natürlich",5154,158618,20
187,"t07_2",2,"t07","INSTR","OBJ>PP",4,"eher natürlich",10153,615896,77
168,"t07_2",2,"t07","INSTR","OBJ>PP",4,"eher natürlich",7494,670405,69
138,"t08_1",1,"t08","INSTR","PP>OBJ",1,"vollkommen unnatürlich",23929,373322,46
136,"t08_1",1,"t08","INSTR","PP>OBJ",5,"vollkommen natürlich",7427,184615,22
189,"t08_1",1,"t08","INSTR","PP>OBJ",4,"eher natürlich",26151,538262,46
185,"t08_1",1,"t08","INSTR","PP>OBJ",5,"vollkommen natürlich",13181,263410,30
128,"t08_1",1,"t08","INSTR","PP>OBJ",4,"eher natürlich",10022,500389,43
197,"t08_1",1,"t08","INSTR","PP>OBJ",5,"vollkommen natürlich",8922,300278,19
183,"t08_1",1,"t08","INSTR","PP>OBJ",4,"eher natürlich",21050,155599,9
130,"t08_1",1,"t08","INSTR","PP>OBJ",5,"vollkommen natürlich",10347,1240305,105
187,"t08_1",1,"t08","INSTR","PP>OBJ",4,"eher natürlich",11300,757343,95
168,"t08_1",1,"t08","INSTR","PP>OBJ",5,"vollkommen natürlich",7637,761217,83
181,"t08_1",1,"t08","INSTR","PP>OBJ",2,"eher unnatürlich",5660,487250,63
132,"t08_1",1,"t08","INSTR","PP>OBJ",3,"keine Tendenz",6717,752275,105
137,"t08_1",1,"t08","INSTR","PP>OBJ",4,"eher natürlich",15240,82233,10
206,"t08_1",1,"t08","INSTR","PP>OBJ",5,"vollkommen natürlich",8422,334317,34
167,"t08_1",1,"t08","INSTR","PP>OBJ",2,"eher unnatürlich",6937,446786,47
201,"t08_1",1,"t08","INSTR","PP>OBJ",4,"eher natürlich",8277,463423,59
213,"t08_1",1,"t08","INSTR","PP>OBJ",4,"eher natürlich",8395,486195,39
179,"t08_1",1,"t08","INSTR","PP>OBJ",5,"vollkommen natürlich",8886,881258,105
210,"t08_1",1,"t08","INSTR","PP>OBJ",2,"eher unnatürlich",9950,266422,21
215,"t08_1",1,"t08","INSTR","PP>OBJ",5,"vollkommen natürlich",6437,211286,27
199,"t08_1",1,"t08","INSTR","PP>OBJ",4,"eher natürlich",16303,257390,19
203,"t08_1",1,"t08","INSTR","PP>OBJ",2,"eher unnatürlich",6679,734557,74
200,"t08_1",1,"t08","INSTR","PP>OBJ",2,"eher unnatürlich",15901,169838,13
190,"t08_2",2,"t08","INSTR","OBJ>PP",4,"eher natürlich",5259,99184,13
165,"t08_2",2,"t08","INSTR","OBJ>PP",2,"eher unnatürlich",5410,594135,86
163,"t08_2",2,"t08","INSTR","OBJ>PP",1,"vollkommen unnatürlich",7193,322084,43
171,"t08_2",2,"t08","INSTR","OBJ>PP",4,"eher natürlich",5139,213153,21
131,"t08_2",2,"t08","INSTR","OBJ>PP",5,"vollkommen natürlich",10085,99401,9
151,"t08_2",2,"t08","INSTR","OBJ>PP",4,"eher natürlich",10101,647944,78
194,"t08_2",2,"t08","INSTR","OBJ>PP",5,"vollkommen natürlich",8663,112371,11
184,"t08_2",2,"t08","INSTR","OBJ>PP",4,"eher natürlich",7605,281779,23
177,"t08_2",2,"t08","INSTR","OBJ>PP",4,"eher natürlich",6977,624472,62
157,"t08_2",2,"t08","INSTR","OBJ>PP",4,"eher natürlich",10899,125635,8
156,"t08_2",2,"t08","INSTR","OBJ>PP",1,"vollkommen unnatürlich",49130,225905,15
149,"t08_2",2,"t08","INSTR","OBJ>PP",4,"eher natürlich",10217,961958,67
148,"t08_2",2,"t08","INSTR","OBJ>PP",1,"vollkommen unnatürlich",12942,659447,35
172,"t08_2",2,"t08","INSTR","OBJ>PP",4,"eher natürlich",9826,316836,27
160,"t08_2",2,"t08","INSTR","OBJ>PP",4,"eher natürlich",4896,417646,59
169,"t08_2",2,"t08","INSTR","OBJ>PP",5,"vollkommen natürlich",4514,313445,50
174,"t08_2",2,"t08","INSTR","OBJ>PP",4,"eher natürlich",7425,111449,11
159,"t08_2",2,"t08","INSTR","OBJ>PP",4,"eher natürlich",5026,244637,35
135,"t08_2",2,"t08","INSTR","OBJ>PP",3,"keine Tendenz",7340,814348,99
161,"t08_2",2,"t08","INSTR","OBJ>PP",3,"keine Tendenz",10001,373935,35
150,"t08_2",2,"t08","INSTR","OBJ>PP",2,"eher unnatürlich",13210,108216,8
176,"t08_2",2,"t08","INSTR","OBJ>PP",2,"eher unnatürlich",10085,778449,90
162,"t08_2",2,"t08","INSTR","OBJ>PP",5,"vollkommen natürlich",5671,615182,67
182,"t08_2",2,"t08","INSTR","OBJ>PP",4,"eher natürlich",13701,114488,9
166,"t08_2",2,"t08","INSTR","OBJ>PP",5,"vollkommen natürlich",4360,323525,54
134,"t08_2",2,"t08","INSTR","OBJ>PP",4,"eher natürlich",5954,732615,97
196,"t08_2",2,"t08","INSTR","OBJ>PP",4,"eher natürlich",3482,359030,62
133,"t08_2",2,"t08","INSTR","OBJ>PP",3,"keine Tendenz",17695,799274,63
148,"t09_1",1,"t09","INSTR","PP>OBJ",5,"vollkommen natürlich",17197,581415,28
134,"t09_1",1,"t09","INSTR","PP>OBJ",4,"eher natürlich",4973,640294,85
133,"t09_1",1,"t09","INSTR","PP>OBJ",3,"keine Tendenz",12183,1137358,94
174,"t09_1",1,"t09","INSTR","PP>OBJ",4,"eher natürlich",5576,289331,32
166,"t09_1",1,"t09","INSTR","PP>OBJ",5,"vollkommen natürlich",4498,147501,22
131,"t09_1",1,"t09","INSTR","PP>OBJ",2,"eher unnatürlich",8060,76976,7
165,"t09_1",1,"t09","INSTR","PP>OBJ",4,"eher natürlich",8538,618407,90
151,"t09_1",1,"t09","INSTR","PP>OBJ",4,"eher natürlich",6994,367214,44
160,"t09_1",1,"t09","INSTR","PP>OBJ",4,"eher natürlich",3655,200898,26
150,"t09_1",1,"t09","INSTR","PP>OBJ",4,"eher natürlich",14052,170921,11
162,"t09_1",1,"t09","INSTR","PP>OBJ",5,"vollkommen natürlich",8800,216232,20
177,"t09_1",1,"t09","INSTR","PP>OBJ",4,"eher natürlich",7950,581377,59
176,"t09_1",1,"t09","INSTR","PP>OBJ",2,"eher unnatürlich",13244,64855,6
171,"t09_1",1,"t09","INSTR","PP>OBJ",4,"eher natürlich",5990,128688,11
161,"t09_1",1,"t09","INSTR","PP>OBJ",5,"vollkommen natürlich",15129,804675,71
149,"t09_1",1,"t09","INSTR","PP>OBJ",4,"eher natürlich",10146,1098356,83
172,"t09_1",1,"t09","INSTR","PP>OBJ",3,"keine Tendenz",7615,886048,82
163,"t09_1",1,"t09","INSTR","PP>OBJ",2,"eher unnatürlich",5689,429628,59
159,"t09_1",1,"t09","INSTR","PP>OBJ",5,"vollkommen natürlich",4784,573230,92
196,"t09_1",1,"t09","INSTR","PP>OBJ",4,"eher natürlich",3694,216398,36
182,"t09_1",1,"t09","INSTR","PP>OBJ",4,"eher natürlich",6293,846139,89
135,"t09_1",1,"t09","INSTR","PP>OBJ",4,"eher natürlich",6617,85147,10
157,"t09_1",1,"t09","INSTR","PP>OBJ",4,"eher natürlich",4553,546158,53
184,"t09_1",1,"t09","INSTR","PP>OBJ",4,"eher natürlich",6520,144073,13
156,"t09_1",1,"t09","INSTR","PP>OBJ",4,"eher natürlich",5708,932548,94
169,"t09_1",1,"t09","INSTR","PP>OBJ",5,"vollkommen natürlich",4942,104768,13
194,"t09_1",1,"t09","INSTR","PP>OBJ",5,"vollkommen natürlich",9114,69342,6
190,"t09_1",1,"t09","INSTR","PP>OBJ",4,"eher natürlich",5571,296395,42
168,"t09_2",2,"t09","INSTR","OBJ>PP",4,"eher natürlich",8739,846369,94
206,"t09_2",2,"t09","INSTR","OBJ>PP",4,"eher natürlich",6819,539314,58
203,"t09_2",2,"t09","INSTR","OBJ>PP",4,"eher natürlich",89521,551551,61
167,"t09_2",2,"t09","INSTR","OBJ>PP",4,"eher natürlich",8584,814156,91
179,"t09_2",2,"t09","INSTR","OBJ>PP",4,"eher natürlich",10885,291134,32
138,"t09_2",2,"t09","INSTR","OBJ>PP",3,"keine Tendenz",4590,332744,42
189,"t09_2",2,"t09","INSTR","OBJ>PP",4,"eher natürlich",7785,734166,67
130,"t09_2",2,"t09","INSTR","OBJ>PP",4,"eher natürlich",10771,732009,58
199,"t09_2",2,"t09","INSTR","OBJ>PP",5,"vollkommen natürlich",11942,1092765,81
197,"t09_2",2,"t09","INSTR","OBJ>PP",4,"eher natürlich",20550,440603,30
210,"t09_2",2,"t09","INSTR","OBJ>PP",4,"eher natürlich",9205,759093,65
185,"t09_2",2,"t09","INSTR","OBJ>PP",5,"vollkommen natürlich",7071,366664,42
187,"t09_2",2,"t09","INSTR","OBJ>PP",5,"vollkommen natürlich",16948,171895,22
132,"t09_2",2,"t09","INSTR","OBJ>PP",4,"eher natürlich",6459,532236,74
200,"t09_2",2,"t09","INSTR","OBJ>PP",5,"vollkommen natürlich",10245,249455,20
183,"t09_2",2,"t09","INSTR","OBJ>PP",4,"eher natürlich",5732,1109350,78
181,"t09_2",2,"t09","INSTR","OBJ>PP",4,"eher natürlich",6379,571954,77
215,"t09_2",2,"t09","INSTR","OBJ>PP",5,"vollkommen natürlich",6309,159431,20
213,"t09_2",2,"t09","INSTR","OBJ>PP",3,"keine Tendenz",16036,709368,60
137,"t09_2",2,"t09","INSTR","OBJ>PP",5,"vollkommen natürlich",3652,760675,91
128,"t09_2",2,"t09","INSTR","OBJ>PP",4,"eher natürlich",9723,838525,75
136,"t09_2",2,"t09","INSTR","OBJ>PP",5,"vollkommen natürlich",9212,534537,61
201,"t09_2",2,"t09","INSTR","OBJ>PP",4,"eher natürlich",10839,544312,69
168,"t10_1",1,"t10","INSTR","PP>OBJ",5,"vollkommen natürlich",9609,103251,10
138,"t10_1",1,"t10","INSTR","PP>OBJ",2,"eher unnatürlich",7386,566838,70
203,"t10_1",1,"t10","INSTR","PP>OBJ",2,"eher unnatürlich",7239,90316,11
132,"t10_1",1,"t10","INSTR","PP>OBJ",4,"eher natürlich",6061,504938,70
210,"t10_1",1,"t10","INSTR","PP>OBJ",4,"eher natürlich",6714,444581,37
167,"t10_1",1,"t10","INSTR","PP>OBJ",2,"eher unnatürlich",8679,274783,27
201,"t10_1",1,"t10","INSTR","PP>OBJ",1,"vollkommen unnatürlich",5940,634207,81
136,"t10_1",1,"t10","INSTR","PP>OBJ",5,"vollkommen natürlich",12318,736060,84
213,"t10_1",1,"t10","INSTR","PP>OBJ",4,"eher natürlich",22125,1109520,96
197,"t10_1",1,"t10","INSTR","PP>OBJ",4,"eher natürlich",9945,745763,59
187,"t10_1",1,"t10","INSTR","PP>OBJ",4,"eher natürlich",7683,53277,6
189,"t10_1",1,"t10","INSTR","PP>OBJ",2,"eher unnatürlich",16989,258676,19
181,"t10_1",1,"t10","INSTR","PP>OBJ",2,"eher unnatürlich",11805,688730,91
206,"t10_1",1,"t10","INSTR","PP>OBJ",2,"eher unnatürlich",9125,706556,77
179,"t10_1",1,"t10","INSTR","PP>OBJ",2,"eher unnatürlich",8139,203614,22
215,"t10_1",1,"t10","INSTR","PP>OBJ",5,"vollkommen natürlich",7567,241426,31
185,"t10_1",1,"t10","INSTR","PP>OBJ",4,"eher natürlich",3157,808183,87
183,"t10_1",1,"t10","INSTR","PP>OBJ",4,"eher natürlich",9880,952064,65
130,"t10_1",1,"t10","INSTR","PP>OBJ",2,"eher unnatürlich",10261,1197675,101
137,"t10_1",1,"t10","INSTR","PP>OBJ",4,"eher natürlich",6956,487172,61
128,"t10_1",1,"t10","INSTR","PP>OBJ",4,"eher natürlich",7979,961586,85
199,"t10_1",1,"t10","INSTR","PP>OBJ",5,"vollkommen natürlich",17950,835893,61
200,"t10_1",1,"t10","INSTR","PP>OBJ",4,"eher natürlich",10942,130647,10
151,"t10_2",2,"t10","INSTR","OBJ>PP",4,"eher natürlich",11610,280105,34
169,"t10_2",2,"t10","INSTR","OBJ>PP",5,"vollkommen natürlich",6270,189491,27
196,"t10_2",2,"t10","INSTR","OBJ>PP",4,"eher natürlich",5770,306516,53
160,"t10_2",2,"t10","INSTR","OBJ>PP",4,"eher natürlich",6449,580578,82
159,"t10_2",2,"t10","INSTR","OBJ>PP",4,"eher natürlich",5936,607219,97
157,"t10_2",2,"t10","INSTR","OBJ>PP",4,"eher natürlich",5578,911704,95
166,"t10_2",2,"t10","INSTR","OBJ>PP",5,"vollkommen natürlich",4240,571773,87
161,"t10_2",2,"t10","INSTR","OBJ>PP",4,"eher natürlich",14555,832514,73
131,"t10_2",2,"t10","INSTR","OBJ>PP",3,"keine Tendenz",10503,606407,71
171,"t10_2",2,"t10","INSTR","OBJ>PP",3,"keine Tendenz",13630,421910,45
156,"t10_2",2,"t10","INSTR","OBJ>PP",4,"eher natürlich",5830,971460,99
149,"t10_2",2,"t10","INSTR","OBJ>PP",4,"eher natürlich",8210,534484,28
134,"t10_2",2,"t10","INSTR","OBJ>PP",2,"eher unnatürlich",7247,487462,63
148,"t10_2",2,"t10","INSTR","OBJ>PP",2,"eher unnatürlich",18389,82352,6
150,"t10_2",2,"t10","INSTR","OBJ>PP",4,"eher natürlich",8970,1078288,99
184,"t10_2",2,"t10","INSTR","OBJ>PP",4,"eher natürlich",10400,439499,39
190,"t10_2",2,"t10","INSTR","OBJ>PP",2,"eher unnatürlich",5933,474993,67
135,"t10_2",2,"t10","INSTR","OBJ>PP",2,"eher unnatürlich",6818,187008,23
194,"t10_2",2,"t10","INSTR","OBJ>PP",5,"vollkommen natürlich",6757,246128,27
163,"t10_2",2,"t10","INSTR","OBJ>PP",4,"eher natürlich",10239,113877,14
162,"t10_2",2,"t10","INSTR","OBJ>PP",4,"eher natürlich",13780,349710,35
165,"t10_2",2,"t10","INSTR","OBJ>PP",2,"eher unnatürlich",6985,705625,104
177,"t10_2",2,"t10","INSTR","OBJ>PP",2,"eher unnatürlich",7165,766394,84
182,"t10_2",2,"t10","INSTR","OBJ>PP",4,"eher natürlich",9237,423442,40
176,"t10_2",2,"t10","INSTR","OBJ>PP",4,"eher natürlich",9222,732501,84
172,"t10_2",2,"t10","INSTR","OBJ>PP",2,"eher unnatürlich",8308,591087,54
133,"t10_2",2,"t10","INSTR","OBJ>PP",3,"keine Tendenz",8499,1200241,100
174,"t10_2",2,"t10","INSTR","OBJ>PP",4,"eher natürlich",4921,795012,104
162,"t11_1",1,"t11","INSTR","PP>OBJ",5,"vollkommen natürlich",6424,882973,104
182,"t11_1",1,"t11","INSTR","PP>OBJ",5,"vollkommen natürlich",6197,810706,84
133,"t11_1",1,"t11","INSTR","PP>OBJ",3,"keine Tendenz",14746,956973,78
171,"t11_1",1,"t11","INSTR","PP>OBJ",4,"eher natürlich",8275,322455,34
177,"t11_1",1,"t11","INSTR","PP>OBJ",3,"keine Tendenz",6130,554378,56
135,"t11_1",1,"t11","INSTR","PP>OBJ",3,"keine Tendenz",9088,145166,17
172,"t11_1",1,"t11","INSTR","PP>OBJ",2,"eher unnatürlich",10933,257340,21
148,"t11_1",1,"t11","INSTR","PP>OBJ",2,"eher unnatürlich",24494,181672,11
165,"t11_1",1,"t11","INSTR","PP>OBJ",4,"eher natürlich",4984,471341,64
194,"t11_1",1,"t11","INSTR","PP>OBJ",5,"vollkommen natürlich",7881,170689,18
176,"t11_1",1,"t11","INSTR","PP>OBJ",4,"eher natürlich",11363,666371,76
157,"t11_1",1,"t11","INSTR","PP>OBJ",4,"eher natürlich",12789,457486,44
169,"t11_1",1,"t11","INSTR","PP>OBJ",4,"eher natürlich",6612,576495,101
150,"t11_1",1,"t11","INSTR","PP>OBJ",4,"eher natürlich",12798,777135,66
131,"t11_1",1,"t11","INSTR","PP>OBJ",2,"eher unnatürlich",5848,788616,93
166,"t11_1",1,"t11","INSTR","PP>OBJ",5,"vollkommen natürlich",5423,668870,104
174,"t11_1",1,"t11","INSTR","PP>OBJ",4,"eher natürlich",6816,662069,82
149,"t11_1",1,"t11","INSTR","PP>OBJ",1,"vollkommen unnatürlich",10722,1204068,96
184,"t11_1",1,"t11","INSTR","PP>OBJ",1,"vollkommen unnatürlich",6349,722554,74
161,"t11_1",1,"t11","INSTR","PP>OBJ",5,"vollkommen natürlich",9818,586385,54
156,"t11_1",1,"t11","INSTR","PP>OBJ",1,"vollkommen unnatürlich",4477,429371,37
160,"t11_1",1,"t11","INSTR","PP>OBJ",4,"eher natürlich",9588,106297,12
190,"t11_1",1,"t11","INSTR","PP>OBJ",4,"eher natürlich",6955,710969,103
151,"t11_1",1,"t11","INSTR","PP>OBJ",2,"eher unnatürlich",11821,183471,22
159,"t11_1",1,"t11","INSTR","PP>OBJ",5,"vollkommen natürlich",5239,149273,20
196,"t11_1",1,"t11","INSTR","PP>OBJ",4,"eher natürlich",5590,120393,17
134,"t11_1",1,"t11","INSTR","PP>OBJ",4,"eher natürlich",6027,341106,44
163,"t11_1",1,"t11","INSTR","PP>OBJ",2,"eher unnatürlich",8711,679749,94
215,"t11_2",2,"t11","INSTR","OBJ>PP",5,"vollkommen natürlich",5792,753566,96
136,"t11_2",2,"t11","INSTR","OBJ>PP",4,"eher natürlich",7937,317191,35
179,"t11_2",2,"t11","INSTR","OBJ>PP",4,"eher natürlich",7646,362372,40
167,"t11_2",2,"t11","INSTR","OBJ>PP",4,"eher natürlich",13744,131106,12
132,"t11_2",2,"t11","INSTR","OBJ>PP",2,"eher unnatürlich",6940,678219,95
168,"t11_2",2,"t11","INSTR","OBJ>PP",4,"eher natürlich",11175,885305,99
203,"t11_2",2,"t11","INSTR","OBJ>PP",5,"vollkommen natürlich",7468,171636,24
138,"t11_2",2,"t11","INSTR","OBJ>PP",2,"eher unnatürlich",8813,140623,18
187,"t11_2",2,"t11","INSTR","OBJ>PP",5,"vollkommen natürlich",10048,352664,43
213,"t11_2",2,"t11","INSTR","OBJ>PP",3,"keine Tendenz",12292,885819,76
199,"t11_2",2,"t11","INSTR","OBJ>PP",5,"vollkommen natürlich",14631,1003220,74
201,"t11_2",2,"t11","INSTR","OBJ>PP",2,"eher unnatürlich",9117,329471,41
185,"t11_2",2,"t11","INSTR","OBJ>PP",4,"eher natürlich",14770,236387,27
189,"t11_2",2,"t11","INSTR","OBJ>PP",2,"eher unnatürlich",15362,224108,16
210,"t11_2",2,"t11","INSTR","OBJ>PP",5,"vollkommen natürlich",13028,930010,81
137,"t11_2",2,"t11","INSTR","OBJ>PP",5,"vollkommen natürlich",6596,473933,59
197,"t11_2",2,"t11","INSTR","OBJ>PP",4,"eher natürlich",13401,609231,44
181,"t11_2",2,"t11","INSTR","OBJ>PP",2,"eher unnatürlich",6732,331694,40
130,"t11_2",2,"t11","INSTR","OBJ>PP",5,"vollkommen natürlich",11564,1020682,84
183,"t11_2",2,"t11","INSTR","OBJ>PP",4,"eher natürlich",16505,355113,24
206,"t11_2",2,"t11","INSTR","OBJ>PP",5,"vollkommen natürlich",10681,130138,11
200,"t11_2",2,"t11","INSTR","OBJ>PP",5,"vollkommen natürlich",13709,230006,18
128,"t11_2",2,"t11","INSTR","OBJ>PP",4,"eher natürlich",11495,348979,29
183,"t12_1",1,"t12","INSTR","PP>OBJ",4,"eher natürlich",11458,1267788,95
138,"t12_1",1,"t12","INSTR","PP>OBJ",3,"keine Tendenz",5179,686845,91
187,"t12_1",1,"t12","INSTR","PP>OBJ",4,"eher natürlich",5076,529960,65
197,"t12_1",1,"t12","INSTR","PP>OBJ",5,"vollkommen natürlich",13990,253049,16
199,"t12_1",1,"t12","INSTR","PP>OBJ",4,"eher natürlich",17207,146022,11
167,"t12_1",1,"t12","INSTR","PP>OBJ",2,"eher unnatürlich",6102,311725,31
206,"t12_1",1,"t12","INSTR","PP>OBJ",4,"eher natürlich",7994,262740,26
200,"t12_1",1,"t12","INSTR","PP>OBJ",5,"vollkommen natürlich",6429,892445,78
203,"t12_1",1,"t12","INSTR","PP>OBJ",5,"vollkommen natürlich",4694,922640,105
215,"t12_1",1,"t12","INSTR","PP>OBJ",5,"vollkommen natürlich",6950,115341,13
213,"t12_1",1,"t12","INSTR","PP>OBJ",4,"eher natürlich",15150,153108,11
179,"t12_1",1,"t12","INSTR","PP>OBJ",3,"keine Tendenz",8330,310235,34
128,"t12_1",1,"t12","INSTR","PP>OBJ",4,"eher natürlich",7479,315938,26
201,"t12_1",1,"t12","INSTR","PP>OBJ",5,"vollkommen natürlich",8118,230432,28
185,"t12_1",1,"t12","INSTR","PP>OBJ",5,"vollkommen natürlich",12001,315178,35
137,"t12_1",1,"t12","INSTR","PP>OBJ",4,"eher natürlich",8534,445136,55
132,"t12_1",1,"t12","INSTR","PP>OBJ",2,"eher unnatürlich",8206,592220,83
181,"t12_1",1,"t12","INSTR","PP>OBJ",2,"eher unnatürlich",5941,587460,80
168,"t12_1",1,"t12","INSTR","PP>OBJ",2,"eher unnatürlich",11114,655634,67
130,"t12_1",1,"t12","INSTR","PP>OBJ",5,"vollkommen natürlich",11992,904497,73
136,"t12_1",1,"t12","INSTR","PP>OBJ",3,"keine Tendenz",6882,129098,15
189,"t12_1",1,"t12","INSTR","PP>OBJ",2,"eher unnatürlich",8745,280973,21
210,"t12_1",1,"t12","INSTR","PP>OBJ",4,"eher natürlich",8750,792446,68
149,"t12_2",2,"t12","INSTR","OBJ>PP",4,"eher natürlich",7613,1273952,104
176,"t12_2",2,"t12","INSTR","OBJ>PP",2,"eher unnatürlich",10593,617415,71
171,"t12_2",2,"t12","INSTR","OBJ>PP",4,"eher natürlich",13405,662914,75
151,"t12_2",2,"t12","INSTR","OBJ>PP",4,"eher natürlich",8825,116653,13
169,"t12_2",2,"t12","INSTR","OBJ>PP",5,"vollkommen natürlich",4256,554465,97
162,"t12_2",2,"t12","INSTR","OBJ>PP",5,"vollkommen natürlich",9665,458017,47
196,"t12_2",2,"t12","INSTR","OBJ>PP",4,"eher natürlich",3888,414612,74
150,"t12_2",2,"t12","INSTR","OBJ>PP",4,"eher natürlich",20244,954618,84
166,"t12_2",2,"t12","INSTR","OBJ>PP",5,"vollkommen natürlich",4816,532252,80
172,"t12_2",2,"t12","INSTR","OBJ>PP",4,"eher natürlich",11346,286529,24
190,"t12_2",2,"t12","INSTR","OBJ>PP",4,"eher natürlich",4958,390011,55
134,"t12_2",2,"t12","INSTR","OBJ>PP",4,"eher natürlich",6575,767910,101
131,"t12_2",2,"t12","INSTR","OBJ>PP",2,"eher unnatürlich",7821,349535,39
159,"t12_2",2,"t12","INSTR","OBJ>PP",4,"eher natürlich",6809,538020,86
184,"t12_2",2,"t12","INSTR","OBJ>PP",4,"eher natürlich",7342,871125,95
165,"t12_2",2,"t12","INSTR","OBJ>PP",2,"eher unnatürlich",5433,332831,42
174,"t12_2",2,"t12","INSTR","OBJ>PP",4,"eher natürlich",6769,542599,63
157,"t12_2",2,"t12","INSTR","OBJ>PP",4,"eher natürlich",6635,243141,19
161,"t12_2",2,"t12","INSTR","OBJ>PP",4,"eher natürlich",12354,148781,13
194,"t12_2",2,"t12","INSTR","OBJ>PP",5,"vollkommen natürlich",10499,213669,23
177,"t12_2",2,"t12","INSTR","OBJ>PP",4,"eher natürlich",13745,96633,6
156,"t12_2",2,"t12","INSTR","OBJ>PP",4,"eher natürlich",8864,786620,76
160,"t12_2",2,"t12","INSTR","OBJ>PP",4,"eher natürlich",5745,350381,49
182,"t12_2",2,"t12","INSTR","OBJ>PP",4,"eher natürlich",9196,397130,37
163,"t12_2",2,"t12","INSTR","OBJ>PP",1,"vollkommen unnatürlich",8091,724906,99
148,"t12_2",2,"t12","INSTR","OBJ>PP",2,"eher unnatürlich",8642,1808678,89
135,"t12_2",2,"t12","INSTR","OBJ>PP",3,"keine Tendenz",10017,489712,61
133,"t12_2",2,"t12","INSTR","OBJ>PP",2,"eher unnatürlich",11839,645971,50
194,"t13_1",1,"t13","COM(O)","PP>OBJ",4,"eher natürlich",6762,905533,100
182,"t13_1",1,"t13","COM(O)","PP>OBJ",4,"eher natürlich",7062,595934,57
148,"t13_1",1,"t13","COM(O)","PP>OBJ",4,"eher natürlich",11131,785071,46
157,"t13_1",1,"t13","COM(O)","PP>OBJ",4,"eher natürlich",5566,526989,50
174,"t13_1",1,"t13","COM(O)","PP>OBJ",4,"eher natürlich",8811,350101,39
171,"t13_1",1,"t13","COM(O)","PP>OBJ",2,"eher unnatürlich",7904,615823,69
159,"t13_1",1,"t13","COM(O)","PP>OBJ",4,"eher natürlich",4242,262297,38
165,"t13_1",1,"t13","COM(O)","PP>OBJ",4,"eher natürlich",7236,666187,98
162,"t13_1",1,"t13","COM(O)","PP>OBJ",5,"vollkommen natürlich",12864,788018,89
150,"t13_1",1,"t13","COM(O)","PP>OBJ",4,"eher natürlich",12579,257834,18
134,"t13_1",1,"t13","COM(O)","PP>OBJ",4,"eher natürlich",9866,270970,34
131,"t13_1",1,"t13","COM(O)","PP>OBJ",4,"eher natürlich",7462,208621,21
172,"t13_1",1,"t13","COM(O)","PP>OBJ",3,"keine Tendenz",13237,174985,13
176,"t13_1",1,"t13","COM(O)","PP>OBJ",2,"eher unnatürlich",9638,595226,68
177,"t13_1",1,"t13","COM(O)","PP>OBJ",4,"eher natürlich",4848,791642,87
196,"t13_1",1,"t13","COM(O)","PP>OBJ",4,"eher natürlich",4248,166036,26
161,"t13_1",1,"t13","COM(O)","PP>OBJ",3,"keine Tendenz",9916,302181,27
156,"t13_1",1,"t13","COM(O)","PP>OBJ",4,"eher natürlich",9965,595986,54
163,"t13_1",1,"t13","COM(O)","PP>OBJ",4,"eher natürlich",7748,518515,72
169,"t13_1",1,"t13","COM(O)","PP>OBJ",2,"eher unnatürlich",5277,437743,75
184,"t13_1",1,"t13","COM(O)","PP>OBJ",4,"eher natürlich",6425,595239,58
166,"t13_1",1,"t13","COM(O)","PP>OBJ",4,"eher natürlich",7907,346892,57
160,"t13_1",1,"t13","COM(O)","PP>OBJ",4,"eher natürlich",6585,654022,92
151,"t13_1",1,"t13","COM(O)","PP>OBJ",2,"eher unnatürlich",13158,828830,99
133,"t13_1",1,"t13","COM(O)","PP>OBJ",2,"eher unnatürlich",6490,1116277,92
149,"t13_1",1,"t13","COM(O)","PP>OBJ",2,"eher unnatürlich",9206,273975,7
190,"t13_1",1,"t13","COM(O)","PP>OBJ",3,"keine Tendenz",5748,690305,100
135,"t13_1",1,"t13","COM(O)","PP>OBJ",1,"vollkommen unnatürlich",9496,325614,41
128,"t13_2",2,"t13","COM(O)","OBJ>PP",4,"eher natürlich",12422,381758,31
213,"t13_2",2,"t13","COM(O)","OBJ>PP",4,"eher natürlich",8545,1193782,104
183,"t13_2",2,"t13","COM(O)","OBJ>PP",4,"eher natürlich",8748,1239506,91
138,"t13_2",2,"t13","COM(O)","OBJ>PP",4,"eher natürlich",17199,216186,26
168,"t13_2",2,"t13","COM(O)","OBJ>PP",5,"vollkommen natürlich",8301,263854,26
215,"t13_2",2,"t13","COM(O)","OBJ>PP",5,"vollkommen natürlich",6802,541435,67
200,"t13_2",2,"t13","COM(O)","OBJ>PP",5,"vollkommen natürlich",10278,400967,35
210,"t13_2",2,"t13","COM(O)","OBJ>PP",5,"vollkommen natürlich",11551,1078191,95
132,"t13_2",2,"t13","COM(O)","OBJ>PP",2,"eher unnatürlich",7271,312059,41
201,"t13_2",2,"t13","COM(O)","OBJ>PP",5,"vollkommen natürlich",6154,482512,62
130,"t13_2",2,"t13","COM(O)","OBJ>PP",4,"eher natürlich",9956,529249,40
206,"t13_2",2,"t13","COM(O)","OBJ>PP",4,"eher natürlich",12037,761271,85
179,"t13_2",2,"t13","COM(O)","OBJ>PP",3,"keine Tendenz",12190,179984,19
167,"t13_2",2,"t13","COM(O)","OBJ>PP",4,"eher natürlich",10121,424976,44
197,"t13_2",2,"t13","COM(O)","OBJ>PP",5,"vollkommen natürlich",10659,353571,23
199,"t13_2",2,"t13","COM(O)","OBJ>PP",4,"eher natürlich",18975,1038493,77
136,"t13_2",2,"t13","COM(O)","OBJ>PP",2,"eher unnatürlich",7565,476614,54
185,"t13_2",2,"t13","COM(O)","OBJ>PP",4,"eher natürlich",11599,896405,99
137,"t13_2",2,"t13","COM(O)","OBJ>PP",5,"vollkommen natürlich",21262,831767,98
181,"t13_2",2,"t13","COM(O)","OBJ>PP",4,"eher natürlich",9645,224857,29
187,"t13_2",2,"t13","COM(O)","OBJ>PP",4,"eher natürlich",6255,716557,90
189,"t13_2",2,"t13","COM(O)","OBJ>PP",4,"eher natürlich",10653,446157,37
203,"t13_2",2,"t13","COM(O)","OBJ>PP",5,"vollkommen natürlich",8029,817585,89
185,"t14_1",1,"t14","COM(O)","PP>OBJ",4,"eher natürlich",5050,830318,91
189,"t14_1",1,"t14","COM(O)","PP>OBJ",2,"eher unnatürlich",8058,344116,27
213,"t14_1",1,"t14","COM(O)","PP>OBJ",4,"eher natürlich",11577,749001,64
197,"t14_1",1,"t14","COM(O)","PP>OBJ",4,"eher natürlich",9387,1073235,95
201,"t14_1",1,"t14","COM(O)","PP>OBJ",2,"eher unnatürlich",7787,807288,100
200,"t14_1",1,"t14","COM(O)","PP>OBJ",4,"eher natürlich",13662,1148222,102
138,"t14_1",1,"t14","COM(O)","PP>OBJ",1,"vollkommen unnatürlich",9738,125919,16
215,"t14_1",1,"t14","COM(O)","PP>OBJ",5,"vollkommen natürlich",6883,698109,88
181,"t14_1",1,"t14","COM(O)","PP>OBJ",4,"eher natürlich",6313,146047,18
199,"t14_1",1,"t14","COM(O)","PP>OBJ",4,"eher natürlich",16271,1069748,79
136,"t14_1",1,"t14","COM(O)","PP>OBJ",4,"eher natürlich",7615,708638,81
130,"t14_1",1,"t14","COM(O)","PP>OBJ",4,"eher natürlich",9291,637538,49
168,"t14_1",1,"t14","COM(O)","PP>OBJ",4,"eher natürlich",7836,823690,91
132,"t14_1",1,"t14","COM(O)","PP>OBJ",4,"eher natürlich",6142,258235,34
137,"t14_1",1,"t14","COM(O)","PP>OBJ",5,"vollkommen natürlich",6317,408133,51
187,"t14_1",1,"t14","COM(O)","PP>OBJ",4,"eher natürlich",7120,601050,75
128,"t14_1",1,"t14","COM(O)","PP>OBJ",3,"keine Tendenz",15537,444479,37
210,"t14_1",1,"t14","COM(O)","PP>OBJ",2,"eher unnatürlich",8133,240469,19
179,"t14_1",1,"t14","COM(O)","PP>OBJ",2,"eher unnatürlich",9808,112007,11
167,"t14_1",1,"t14","COM(O)","PP>OBJ",2,"eher unnatürlich",6875,924475,105
203,"t14_1",1,"t14","COM(O)","PP>OBJ",3,"keine Tendenz",5566,212427,28
183,"t14_1",1,"t14","COM(O)","PP>OBJ",1,"vollkommen unnatürlich",40601,287145,17
206,"t14_1",1,"t14","COM(O)","PP>OBJ",4,"eher natürlich",9636,857308,98
160,"t14_2",2,"t14","COM(O)","OBJ>PP",4,"eher natürlich",4117,630684,89
172,"t14_2",2,"t14","COM(O)","OBJ>PP",3,"keine Tendenz",26801,817943,74
163,"t14_2",2,"t14","COM(O)","OBJ>PP",3,"keine Tendenz",9556,56278,7
157,"t14_2",2,"t14","COM(O)","OBJ>PP",4,"eher natürlich",7952,205780,14
148,"t14_2",2,"t14","COM(O)","OBJ>PP",4,"eher natürlich",38445,1863063,92
174,"t14_2",2,"t14","COM(O)","OBJ>PP",4,"eher natürlich",6099,678728,85
156,"t14_2",2,"t14","COM(O)","OBJ>PP",4,"eher natürlich",11754,510854,45
184,"t14_2",2,"t14","COM(O)","OBJ>PP",4,"eher natürlich",6850,823451,89
171,"t14_2",2,"t14","COM(O)","OBJ>PP",4,"eher natürlich",11145,281163,29
177,"t14_2",2,"t14","COM(O)","OBJ>PP",4,"eher natürlich",5089,917185,103
149,"t14_2",2,"t14","COM(O)","OBJ>PP",4,"eher natürlich",11303,1224992,98
190,"t14_2",2,"t14","COM(O)","OBJ>PP",3,"keine Tendenz",7983,580739,83
135,"t14_2",2,"t14","COM(O)","OBJ>PP",4,"eher natürlich",6940,692186,84
161,"t14_2",2,"t14","COM(O)","OBJ>PP",4,"eher natürlich",19500,755729,67
134,"t14_2",2,"t14","COM(O)","OBJ>PP",4,"eher natürlich",7835,430161,56
182,"t14_2",2,"t14","COM(O)","OBJ>PP",4,"eher natürlich",6494,543850,51
151,"t14_2",2,"t14","COM(O)","OBJ>PP",2,"eher unnatürlich",6346,739559,88
159,"t14_2",2,"t14","COM(O)","OBJ>PP",2,"eher unnatürlich",7186,97714,12
131,"t14_2",2,"t14","COM(O)","OBJ>PP",4,"eher natürlich",6100,834314,101
165,"t14_2",2,"t14","COM(O)","OBJ>PP",2,"eher unnatürlich",4520,500021,70
162,"t14_2",2,"t14","COM(O)","OBJ>PP",5,"vollkommen natürlich",4747,516939,55
133,"t14_2",2,"t14","COM(O)","OBJ>PP",4,"eher natürlich",11151,326186,25
169,"t14_2",2,"t14","COM(O)","OBJ>PP",5,"vollkommen natürlich",4711,230735,35
166,"t14_2",2,"t14","COM(O)","OBJ>PP",5,"vollkommen natürlich",14592,388237,62
176,"t14_2",2,"t14","COM(O)","OBJ>PP",4,"eher natürlich",16780,869571,99
150,"t14_2",2,"t14","COM(O)","OBJ>PP",4,"eher natürlich",18306,735602,62
194,"t14_2",2,"t14","COM(O)","OBJ>PP",4,"eher natürlich",7749,460717,51
196,"t14_2",2,"t14","COM(O)","OBJ>PP",4,"eher natürlich",3459,569506,103
131,"t15_1",1,"t15","COM(O)","PP>OBJ",4,"eher natürlich",8013,861416,105
194,"t15_1",1,"t15","COM(O)","PP>OBJ",4,"eher natürlich",6761,332088,37
162,"t15_1",1,"t15","COM(O)","PP>OBJ",5,"vollkommen natürlich",5416,605909,65
161,"t15_1",1,"t15","COM(O)","PP>OBJ",2,"eher unnatürlich",13353,1141897,96
149,"t15_1",1,"t15","COM(O)","PP>OBJ",4,"eher natürlich",11421,1168561,92
190,"t15_1",1,"t15","COM(O)","PP>OBJ",2,"eher unnatürlich",10615,361876,51
135,"t15_1",1,"t15","COM(O)","PP>OBJ",1,"vollkommen unnatürlich",7933,290468,36
133,"t15_1",1,"t15","COM(O)","PP>OBJ",2,"eher unnatürlich",5917,464075,37
182,"t15_1",1,"t15","COM(O)","PP>OBJ",3,"keine Tendenz",7901,695026,69
165,"t15_1",1,"t15","COM(O)","PP>OBJ",4,"eher natürlich",9396,576193,82
156,"t15_1",1,"t15","COM(O)","PP>OBJ",2,"eher unnatürlich",6072,997683,103
169,"t15_1",1,"t15","COM(O)","PP>OBJ",2,"eher unnatürlich",4778,469667,81
176,"t15_1",1,"t15","COM(O)","PP>OBJ",5,"vollkommen natürlich",7428,434494,46
196,"t15_1",1,"t15","COM(O)","PP>OBJ",2,"eher unnatürlich",6078,369381,64
174,"t15_1",1,"t15","COM(O)","PP>OBJ",4,"eher natürlich",6515,519664,60
159,"t15_1",1,"t15","COM(O)","PP>OBJ",1,"vollkommen unnatürlich",8720,388862,60
134,"t15_1",1,"t15","COM(O)","PP>OBJ",4,"eher natürlich",4807,583543,76
184,"t15_1",1,"t15","COM(O)","PP>OBJ",2,"eher unnatürlich",17172,674321,68
151,"t15_1",1,"t15","COM(O)","PP>OBJ",2,"eher unnatürlich",7081,858261,102
177,"t15_1",1,"t15","COM(O)","PP>OBJ",4,"eher natürlich",4800,714368,77
148,"t15_1",1,"t15","COM(O)","PP>OBJ",4,"eher natürlich",19117,691935,37
150,"t15_1",1,"t15","COM(O)","PP>OBJ",2,"eher unnatürlich",6150,639271,54
163,"t15_1",1,"t15","COM(O)","PP>OBJ",2,"eher unnatürlich",8460,261144,35
166,"t15_1",1,"t15","COM(O)","PP>OBJ",5,"vollkommen natürlich",4726,624723,96
160,"t15_1",1,"t15","COM(O)","PP>OBJ",4,"eher natürlich",4507,453116,64
171,"t15_1",1,"t15","COM(O)","PP>OBJ",4,"eher natürlich",6045,881306,101
157,"t15_1",1,"t15","COM(O)","PP>OBJ",4,"eher natürlich",5410,652968,65
172,"t15_1",1,"t15","COM(O)","PP>OBJ",3,"keine Tendenz",9287,724842,68
213,"t15_2",2,"t15","COM(O)","OBJ>PP",4,"eher natürlich",9335,830650,72
201,"t15_2",2,"t15","COM(O)","OBJ>PP",4,"eher natürlich",9956,110848,12
136,"t15_2",2,"t15","COM(O)","OBJ>PP",4,"eher natürlich",8445,509784,58
130,"t15_2",2,"t15","COM(O)","OBJ>PP",4,"eher natürlich",8789,440034,32
132,"t15_2",2,"t15","COM(O)","OBJ>PP",2,"eher unnatürlich",6725,296339,39
215,"t15_2",2,"t15","COM(O)","OBJ>PP",5,"vollkommen natürlich",9549,499986,61
183,"t15_2",2,"t15","COM(O)","OBJ>PP",4,"eher natürlich",4942,1323952,102
206,"t15_2",2,"t15","COM(O)","OBJ>PP",4,"eher natürlich",13829,232850,22
128,"t15_2",2,"t15","COM(O)","OBJ>PP",4,"eher natürlich",28872,924664,82
210,"t15_2",2,"t15","COM(O)","OBJ>PP",4,"eher natürlich",10895,283821,23
185,"t15_2",2,"t15","COM(O)","OBJ>PP",4,"eher natürlich",41610,584078,67
200,"t15_2",2,"t15","COM(O)","OBJ>PP",2,"eher unnatürlich",10526,277590,23
189,"t15_2",2,"t15","COM(O)","OBJ>PP",4,"eher natürlich",12388,306605,23
199,"t15_2",2,"t15","COM(O)","OBJ>PP",2,"eher unnatürlich",19927,449165,32
179,"t15_2",2,"t15","COM(O)","OBJ>PP",4,"eher natürlich",7870,866575,103
187,"t15_2",2,"t15","COM(O)","OBJ>PP",4,"eher natürlich",8228,735692,93
168,"t15_2",2,"t15","COM(O)","OBJ>PP",2,"eher unnatürlich",6627,203929,20
138,"t15_2",2,"t15","COM(O)","OBJ>PP",2,"eher unnatürlich",7702,403539,50
203,"t15_2",2,"t15","COM(O)","OBJ>PP",5,"vollkommen natürlich",9788,370536,52
167,"t15_2",2,"t15","COM(O)","OBJ>PP",3,"keine Tendenz",10623,197497,19
197,"t15_2",2,"t15","COM(O)","OBJ>PP",4,"eher natürlich",39764,497988,33
137,"t15_2",2,"t15","COM(O)","OBJ>PP",5,"vollkommen natürlich",6398,573727,70
181,"t15_2",2,"t15","COM(O)","OBJ>PP",4,"eher natürlich",6751,663979,88
206,"t16_1",1,"t16","COM(O)","PP>OBJ",2,"eher unnatürlich",13851,101533,8
200,"t16_1",1,"t16","COM(O)","PP>OBJ",2,"eher unnatürlich",7054,484271,43
213,"t16_1",1,"t16","COM(O)","PP>OBJ",5,"vollkommen natürlich",8009,469260,37
197,"t16_1",1,"t16","COM(O)","PP>OBJ",4,"eher natürlich",10258,993440,85
138,"t16_1",1,"t16","COM(O)","PP>OBJ",2,"eher unnatürlich",6625,52069,6
168,"t16_1",1,"t16","COM(O)","PP>OBJ",4,"eher natürlich",5744,558149,55
185,"t16_1",1,"t16","COM(O)","PP>OBJ",4,"eher natürlich",5478,161097,20
128,"t16_1",1,"t16","COM(O)","PP>OBJ",3,"keine Tendenz",16597,680125,58
136,"t16_1",1,"t16","COM(O)","PP>OBJ",2,"eher unnatürlich",10278,162832,19
189,"t16_1",1,"t16","COM(O)","PP>OBJ",4,"eher natürlich",6958,913790,91
187,"t16_1",1,"t16","COM(O)","PP>OBJ",2,"eher unnatürlich",10514,221488,28
179,"t16_1",1,"t16","COM(O)","PP>OBJ",4,"eher natürlich",9643,327564,36
137,"t16_1",1,"t16","COM(O)","PP>OBJ",4,"eher natürlich",9230,886099,105
130,"t16_1",1,"t16","COM(O)","PP>OBJ",4,"eher natürlich",9325,697817,55
203,"t16_1",1,"t16","COM(O)","PP>OBJ",4,"eher natürlich",7761,245842,34
167,"t16_1",1,"t16","COM(O)","PP>OBJ",2,"eher unnatürlich",10199,556282,59
215,"t16_1",1,"t16","COM(O)","PP>OBJ",5,"vollkommen natürlich",6045,320629,41
132,"t16_1",1,"t16","COM(O)","PP>OBJ",2,"eher unnatürlich",9997,127706,15
199,"t16_1",1,"t16","COM(O)","PP>OBJ",2,"eher unnatürlich",13791,394653,28
183,"t16_1",1,"t16","COM(O)","PP>OBJ",1,"vollkommen unnatürlich",16866,239741,15
201,"t16_1",1,"t16","COM(O)","PP>OBJ",5,"vollkommen natürlich",6902,842785,105
210,"t16_1",1,"t16","COM(O)","PP>OBJ",4,"eher natürlich",13950,731405,62
181,"t16_1",1,"t16","COM(O)","PP>OBJ",4,"eher natürlich",5301,273953,32
157,"t16_2",2,"t16","COM(O)","OBJ>PP",4,"eher natürlich",4218,386512,37
160,"t16_2",2,"t16","COM(O)","OBJ>PP",4,"eher natürlich",6813,295009,41
161,"t16_2",2,"t16","COM(O)","OBJ>PP",3,"keine Tendenz",15260,490679,45
149,"t16_2",2,"t16","COM(O)","OBJ>PP",4,"eher natürlich",8876,828539,54
148,"t16_2",2,"t16","COM(O)","OBJ>PP",4,"eher natürlich",9133,1370606,66
172,"t16_2",2,"t16","COM(O)","OBJ>PP",3,"keine Tendenz",11977,219533,17
131,"t16_2",2,"t16","COM(O)","OBJ>PP",4,"eher natürlich",8832,122195,12
134,"t16_2",2,"t16","COM(O)","OBJ>PP",4,"eher natürlich",5777,693217,91
182,"t16_2",2,"t16","COM(O)","OBJ>PP",4,"eher natürlich",11165,262793,23
196,"t16_2",2,"t16","COM(O)","OBJ>PP",5,"vollkommen natürlich",5470,428111,77
169,"t16_2",2,"t16","COM(O)","OBJ>PP",5,"vollkommen natürlich",3904,212257,31
166,"t16_2",2,"t16","COM(O)","OBJ>PP",5,"vollkommen natürlich",5212,121903,18
163,"t16_2",2,"t16","COM(O)","OBJ>PP",4,"eher natürlich",10027,98456,12
159,"t16_2",2,"t16","COM(O)","OBJ>PP",2,"eher unnatürlich",7044,428851,68
194,"t16_2",2,"t16","COM(O)","OBJ>PP",5,"vollkommen natürlich",7350,186053,20
135,"t16_2",2,"t16","COM(O)","OBJ>PP",4,"eher natürlich",6424,212256,26
165,"t16_2",2,"t16","COM(O)","OBJ>PP",2,"eher unnatürlich",5132,309776,38
133,"t16_2",2,"t16","COM(O)","OBJ>PP",4,"eher natürlich",12235,116034,9
162,"t16_2",2,"t16","COM(O)","OBJ>PP",5,"vollkommen natürlich",8016,405643,41
156,"t16_2",2,"t16","COM(O)","OBJ>PP",2,"eher unnatürlich",10515,286420,21
176,"t16_2",2,"t16","COM(O)","OBJ>PP",5,"vollkommen natürlich",10124,114965,11
190,"t16_2",2,"t16","COM(O)","OBJ>PP",2,"eher unnatürlich",5254,213179,29
171,"t16_2",2,"t16","COM(O)","OBJ>PP",4,"eher natürlich",7013,742505,84
151,"t16_2",2,"t16","COM(O)","OBJ>PP",4,"eher natürlich",5470,141922,17
174,"t16_2",2,"t16","COM(O)","OBJ>PP",4,"eher natürlich",4452,760175,98
177,"t16_2",2,"t16","COM(O)","OBJ>PP",4,"eher natürlich",6578,208568,15
184,"t16_2",2,"t16","COM(O)","OBJ>PP",4,"eher natürlich",4556,732719,76
150,"t16_2",2,"t16","COM(O)","OBJ>PP",4,"eher natürlich",12078,335029,25
161,"t17_1",1,"t17","COM(O)","PP>OBJ",3,"keine Tendenz",12633,213590,19
171,"t17_1",1,"t17","COM(O)","PP>OBJ",4,"eher natürlich",9046,794761,91
160,"t17_1",1,"t17","COM(O)","PP>OBJ",4,"eher natürlich",5005,137167,16
174,"t17_1",1,"t17","COM(O)","PP>OBJ",4,"eher natürlich",4862,599661,72
166,"t17_1",1,"t17","COM(O)","PP>OBJ",4,"eher natürlich",6833,480923,71
151,"t17_1",1,"t17","COM(O)","PP>OBJ",2,"eher unnatürlich",14212,520850,62
176,"t17_1",1,"t17","COM(O)","PP>OBJ",4,"eher natürlich",6671,448073,48
184,"t17_1",1,"t17","COM(O)","PP>OBJ",2,"eher unnatürlich",7902,407434,35
194,"t17_1",1,"t17","COM(O)","PP>OBJ",3,"keine Tendenz",14748,839540,91
156,"t17_1",1,"t17","COM(O)","PP>OBJ",2,"eher unnatürlich",6494,915808,91
159,"t17_1",1,"t17","COM(O)","PP>OBJ",1,"vollkommen unnatürlich",5737,82885,10
157,"t17_1",1,"t17","COM(O)","PP>OBJ",4,"eher natürlich",5464,720364,75
135,"t17_1",1,"t17","COM(O)","PP>OBJ",3,"keine Tendenz",7362,538414,68
131,"t17_1",1,"t17","COM(O)","PP>OBJ",2,"eher unnatürlich",7771,275350,29
163,"t17_1",1,"t17","COM(O)","PP>OBJ",1,"vollkommen unnatürlich",10587,167491,21
148,"t17_1",1,"t17","COM(O)","PP>OBJ",5,"vollkommen natürlich",9237,803895,48
134,"t17_1",1,"t17","COM(O)","PP>OBJ",3,"keine Tendenz",7997,145525,16
196,"t17_1",1,"t17","COM(O)","PP>OBJ",5,"vollkommen natürlich",5710,509035,90
133,"t17_1",1,"t17","COM(O)","PP>OBJ",2,"eher unnatürlich",7370,304976,23
182,"t17_1",1,"t17","COM(O)","PP>OBJ",4,"eher natürlich",7553,650273,63
177,"t17_1",1,"t17","COM(O)","PP>OBJ",3,"keine Tendenz",5089,398105,37
149,"t17_1",1,"t17","COM(O)","PP>OBJ",2,"eher unnatürlich",7121,1080147,81
165,"t17_1",1,"t17","COM(O)","PP>OBJ",4,"eher natürlich",8665,250401,28
172,"t17_1",1,"t17","COM(O)","PP>OBJ",2,"eher unnatürlich",10787,338776,29
150,"t17_1",1,"t17","COM(O)","PP>OBJ",4,"eher natürlich",8561,203475,14
162,"t17_1",1,"t17","COM(O)","PP>OBJ",2,"eher unnatürlich",5594,363357,37
190,"t17_1",1,"t17","COM(O)","PP>OBJ",3,"keine Tendenz",4807,279299,39
169,"t17_1",1,"t17","COM(O)","PP>OBJ",4,"eher natürlich",5184,542821,94
203,"t17_2",2,"t17","COM(O)","OBJ>PP",5,"vollkommen natürlich",5536,719483,71
168,"t17_2",2,"t17","COM(O)","OBJ>PP",4,"eher natürlich",9774,145161,14
167,"t17_2",2,"t17","COM(O)","OBJ>PP",3,"keine Tendenz",6615,602653,65
213,"t17_2",2,"t17","COM(O)","OBJ>PP",4,"eher natürlich",15731,958184,82
179,"t17_2",2,"t17","COM(O)","OBJ>PP",4,"eher natürlich",9371,564776,65
185,"t17_2",2,"t17","COM(O)","OBJ>PP",4,"eher natürlich",13771,142770,17
132,"t17_2",2,"t17","COM(O)","OBJ>PP",4,"eher natürlich",7205,553442,77
206,"t17_2",2,"t17","COM(O)","OBJ>PP",4,"eher natürlich",15495,903727,103
183,"t17_2",2,"t17","COM(O)","OBJ>PP",4,"eher natürlich",4653,1342106,105
200,"t17_2",2,"t17","COM(O)","OBJ>PP",5,"vollkommen natürlich",17806,1185550,105
187,"t17_2",2,"t17","COM(O)","OBJ>PP",4,"eher natürlich",11898,483390,58
137,"t17_2",2,"t17","COM(O)","OBJ>PP",2,"eher unnatürlich",7276,333558,43
128,"t17_2",2,"t17","COM(O)","OBJ>PP",4,"eher natürlich",6551,809691,72
201,"t17_2",2,"t17","COM(O)","OBJ>PP",4,"eher natürlich",9837,134063,15
210,"t17_2",2,"t17","COM(O)","OBJ>PP",4,"eher natürlich",10710,640621,55
189,"t17_2",2,"t17","COM(O)","OBJ>PP",4,"eher natürlich",7852,750565,69
130,"t17_2",2,"t17","COM(O)","OBJ>PP",4,"eher natürlich",13915,1075754,89
136,"t17_2",2,"t17","COM(O)","OBJ>PP",2,"eher unnatürlich",7666,103721,12
138,"t17_2",2,"t17","COM(O)","OBJ>PP",2,"eher unnatürlich",6618,490039,57
215,"t17_2",2,"t17","COM(O)","OBJ>PP",5,"vollkommen natürlich",6071,188260,23
199,"t17_2",2,"t17","COM(O)","OBJ>PP",5,"vollkommen natürlich",13142,1115157,83
181,"t17_2",2,"t17","COM(O)","OBJ>PP",4,"eher natürlich",9082,118053,14
197,"t17_2",2,"t17","COM(O)","OBJ>PP",5,"vollkommen natürlich",5680,1048355,92
136,"t18_1",1,"t18","COM(O)","PP>OBJ",4,"eher natürlich",11310,583169,67
215,"t18_1",1,"t18","COM(O)","PP>OBJ",5,"vollkommen natürlich",6625,597853,75
200,"t18_1",1,"t18","COM(O)","PP>OBJ",4,"eher natürlich",8846,607126,52
199,"t18_1",1,"t18","COM(O)","PP>OBJ",4,"eher natürlich",17318,792517,58
168,"t18_1",1,"t18","COM(O)","PP>OBJ",2,"eher unnatürlich",5836,526420,51
128,"t18_1",1,"t18","COM(O)","PP>OBJ",4,"eher natürlich",14393,869917,78
185,"t18_1",1,"t18","COM(O)","PP>OBJ",2,"eher unnatürlich",9278,110469,14
201,"t18_1",1,"t18","COM(O)","PP>OBJ",1,"vollkommen unnatürlich",8917,307231,39
206,"t18_1",1,"t18","COM(O)","PP>OBJ",2,"eher unnatürlich",14538,76185,6
179,"t18_1",1,"t18","COM(O)","PP>OBJ",2,"eher unnatürlich",6888,253356,28
187,"t18_1",1,"t18","COM(O)","PP>OBJ",1,"vollkommen unnatürlich",7957,643426,81
210,"t18_1",1,"t18","COM(O)","PP>OBJ",2,"eher unnatürlich",14453,699742,60
167,"t18_1",1,"t18","COM(O)","PP>OBJ",2,"eher unnatürlich",13824,790805,88
197,"t18_1",1,"t18","COM(O)","PP>OBJ",4,"eher natürlich",19371,556092,39
189,"t18_1",1,"t18","COM(O)","PP>OBJ",2,"eher unnatürlich",5169,467365,40
203,"t18_1",1,"t18","COM(O)","PP>OBJ",4,"eher natürlich",46993,453414,58
181,"t18_1",1,"t18","COM(O)","PP>OBJ",2,"eher unnatürlich",7192,344789,42
213,"t18_1",1,"t18","COM(O)","PP>OBJ",4,"eher natürlich",15069,286741,21
138,"t18_1",1,"t18","COM(O)","PP>OBJ",1,"vollkommen unnatürlich",6705,719216,97
137,"t18_1",1,"t18","COM(O)","PP>OBJ",1,"vollkommen unnatürlich",22866,372877,46
130,"t18_1",1,"t18","COM(O)","PP>OBJ",4,"eher natürlich",10767,301965,20
132,"t18_1",1,"t18","COM(O)","PP>OBJ",2,"eher unnatürlich",6651,143338,17
183,"t18_1",1,"t18","COM(O)","PP>OBJ",1,"vollkommen unnatürlich",13638,1086076,75
169,"t18_2",2,"t18","COM(O)","OBJ>PP",5,"vollkommen natürlich",3654,285767,45
176,"t18_2",2,"t18","COM(O)","OBJ>PP",5,"vollkommen natürlich",10245,577412,66
163,"t18_2",2,"t18","COM(O)","OBJ>PP",2,"eher unnatürlich",6785,455479,63
165,"t18_2",2,"t18","COM(O)","OBJ>PP",4,"eher natürlich",9390,399383,52
172,"t18_2",2,"t18","COM(O)","OBJ>PP",4,"eher natürlich",8470,548717,49
182,"t18_2",2,"t18","COM(O)","OBJ>PP",4,"eher natürlich",6405,1039142,101
156,"t18_2",2,"t18","COM(O)","OBJ>PP",1,"vollkommen unnatürlich",12615,248525,17
131,"t18_2",2,"t18","COM(O)","OBJ>PP",3,"keine Tendenz",7896,529626,62
160,"t18_2",2,"t18","COM(O)","OBJ>PP",4,"eher natürlich",7302,388279,54
190,"t18_2",2,"t18","COM(O)","OBJ>PP",2,"eher unnatürlich",8982,443924,62
184,"t18_2",2,"t18","COM(O)","OBJ>PP",4,"eher natürlich",8982,327939,28
196,"t18_2",2,"t18","COM(O)","OBJ>PP",4,"eher natürlich",6731,149423,23
159,"t18_2",2,"t18","COM(O)","OBJ>PP",1,"vollkommen unnatürlich",3911,396668,62
157,"t18_2",2,"t18","COM(O)","OBJ>PP",4,"eher natürlich",5319,354910,32
194,"t18_2",2,"t18","COM(O)","OBJ>PP",4,"eher natürlich",7780,387574,44
150,"t18_2",2,"t18","COM(O)","OBJ>PP",4,"eher natürlich",11400,521696,43
135,"t18_2",2,"t18","COM(O)","OBJ>PP",2,"eher unnatürlich",7184,308138,39
166,"t18_2",2,"t18","COM(O)","OBJ>PP",5,"vollkommen natürlich",9143,98590,15
134,"t18_2",2,"t18","COM(O)","OBJ>PP",4,"eher natürlich",5169,393017,51
162,"t18_2",2,"t18","COM(O)","OBJ>PP",5,"vollkommen natürlich",5796,871113,102
177,"t18_2",2,"t18","COM(O)","OBJ>PP",3,"keine Tendenz",8277,411660,39
151,"t18_2",2,"t18","COM(O)","OBJ>PP",2,"eher unnatürlich",6702,807815,97
174,"t18_2",2,"t18","COM(O)","OBJ>PP",3,"keine Tendenz",11751,439974,49
171,"t18_2",2,"t18","COM(O)","OBJ>PP",4,"eher natürlich",10311,906001,104
148,"t18_2",2,"t18","COM(O)","OBJ>PP",4,"eher natürlich",8780,1683190,79
149,"t18_2",2,"t18","COM(O)","OBJ>PP",2,"eher unnatürlich",10153,487449,23
133,"t18_2",2,"t18","COM(O)","OBJ>PP",4,"eher natürlich",8435,1158977,96
161,"t18_2",2,"t18","COM(O)","OBJ>PP",3,"keine Tendenz",14161,1166318,98
135,"t19_1",1,"t19","COM(O)","PP>OBJ",1,"vollkommen unnatürlich",6296,870098,105
131,"t19_1",1,"t19","COM(O)","PP>OBJ",4,"eher natürlich",7361,514787,60
165,"t19_1",1,"t19","COM(O)","PP>OBJ",2,"eher unnatürlich",5213,319531,40
184,"t19_1",1,"t19","COM(O)","PP>OBJ",4,"eher natürlich",6310,574978,55
161,"t19_1",1,"t19","COM(O)","PP>OBJ",4,"eher natürlich",10683,93182,8
182,"t19_1",1,"t19","COM(O)","PP>OBJ",4,"eher natürlich",6772,618525,60
148,"t19_1",1,"t19","COM(O)","PP>OBJ",4,"eher natürlich",8763,1976494,104
171,"t19_1",1,"t19","COM(O)","PP>OBJ",3,"keine Tendenz",9007,228743,23
134,"t19_1",1,"t19","COM(O)","PP>OBJ",3,"keine Tendenz",7694,180285,21
133,"t19_1",1,"t19","COM(O)","PP>OBJ",2,"eher unnatürlich",8767,971123,80
194,"t19_1",1,"t19","COM(O)","PP>OBJ",3,"keine Tendenz",6732,544152,60
177,"t19_1",1,"t19","COM(O)","PP>OBJ",4,"eher natürlich",8243,277824,23
196,"t19_1",1,"t19","COM(O)","PP>OBJ",4,"eher natürlich",3820,499450,88
162,"t19_1",1,"t19","COM(O)","PP>OBJ",5,"vollkommen natürlich",8163,579871,62
151,"t19_1",1,"t19","COM(O)","PP>OBJ",3,"keine Tendenz",13325,498257,60
174,"t19_1",1,"t19","COM(O)","PP>OBJ",4,"eher natürlich",6225,646875,80
176,"t19_1",1,"t19","COM(O)","PP>OBJ",4,"eher natürlich",8487,395659,41
157,"t19_1",1,"t19","COM(O)","PP>OBJ",1,"vollkommen unnatürlich",13137,436877,42
172,"t19_1",1,"t19","COM(O)","PP>OBJ",2,"eher unnatürlich",8072,990627,94
160,"t19_1",1,"t19","COM(O)","PP>OBJ",4,"eher natürlich",4662,277622,39
163,"t19_1",1,"t19","COM(O)","PP>OBJ",1,"vollkommen unnatürlich",7395,197760,26
150,"t19_1",1,"t19","COM(O)","PP>OBJ",2,"eher unnatürlich",13809,292575,21
159,"t19_1",1,"t19","COM(O)","PP>OBJ",2,"eher unnatürlich",5841,520025,83
149,"t19_1",1,"t19","COM(O)","PP>OBJ",1,"vollkommen unnatürlich",6688,592219,34
156,"t19_1",1,"t19","COM(O)","PP>OBJ",2,"eher unnatürlich",13335,533101,47
190,"t19_1",1,"t19","COM(O)","PP>OBJ",1,"vollkommen unnatürlich",5399,517787,72
169,"t19_1",1,"t19","COM(O)","PP>OBJ",2,"eher unnatürlich",9192,61265,6
166,"t19_1",1,"t19","COM(O)","PP>OBJ",4,"eher natürlich",5579,83295,13
168,"t19_2",2,"t19","COM(O)","OBJ>PP",4,"eher natürlich",10348,635186,64
189,"t19_2",2,"t19","COM(O)","OBJ>PP",4,"eher natürlich",11741,1013318,101
199,"t19_2",2,"t19","COM(O)","OBJ>PP",5,"vollkommen natürlich",15806,714981,52
215,"t19_2",2,"t19","COM(O)","OBJ>PP",5,"vollkommen natürlich",4404,778638,100
132,"t19_2",2,"t19","COM(O)","OBJ>PP",4,"eher natürlich",6902,517691,72
128,"t19_2",2,"t19","COM(O)","OBJ>PP",4,"eher natürlich",9866,999470,89
201,"t19_2",2,"t19","COM(O)","OBJ>PP",5,"vollkommen natürlich",6509,147206,17
130,"t19_2",2,"t19","COM(O)","OBJ>PP",4,"eher natürlich",12299,415114,30
138,"t19_2",2,"t19","COM(O)","OBJ>PP",2,"eher unnatürlich",6075,103603,14
210,"t19_2",2,"t19","COM(O)","OBJ>PP",4,"eher natürlich",8211,657956,57
181,"t19_2",2,"t19","COM(O)","OBJ>PP",4,"eher natürlich",4761,496535,65
187,"t19_2",2,"t19","COM(O)","OBJ>PP",4,"eher natürlich",14953,265587,33
183,"t19_2",2,"t19","COM(O)","OBJ>PP",4,"eher natürlich",12616,1166926,83
206,"t19_2",2,"t19","COM(O)","OBJ>PP",2,"eher unnatürlich",6290,779982,88
137,"t19_2",2,"t19","COM(O)","OBJ>PP",5,"vollkommen natürlich",9958,397141,49
213,"t19_2",2,"t19","COM(O)","OBJ>PP",3,"keine Tendenz",17442,221134,17
185,"t19_2",2,"t19","COM(O)","OBJ>PP",5,"vollkommen natürlich",5266,637279,69
136,"t19_2",2,"t19","COM(O)","OBJ>PP",2,"eher unnatürlich",6014,203987,25
200,"t19_2",2,"t19","COM(O)","OBJ>PP",4,"eher natürlich",14270,869422,75
179,"t19_2",2,"t19","COM(O)","OBJ>PP",4,"eher natürlich",5441,516358,59
167,"t19_2",2,"t19","COM(O)","OBJ>PP",3,"keine Tendenz",5780,767517,86
203,"t19_2",2,"t19","COM(O)","OBJ>PP",5,"vollkommen natürlich",10254,865609,97
197,"t19_2",2,"t19","COM(O)","OBJ>PP",5,"vollkommen natürlich",7508,866796,72
181,"t20_1",1,"t20","COM(O)","PP>OBJ",4,"eher natürlich",9452,513622,67
132,"t20_1",1,"t20","COM(O)","PP>OBJ",4,"eher natürlich",8703,187483,24
189,"t20_1",1,"t20","COM(O)","PP>OBJ",4,"eher natürlich",8564,803437,76
179,"t20_1",1,"t20","COM(O)","PP>OBJ",4,"eher natürlich",9545,666221,78
215,"t20_1",1,"t20","COM(O)","PP>OBJ",5,"vollkommen natürlich",7257,565686,70
197,"t20_1",1,"t20","COM(O)","PP>OBJ",5,"vollkommen natürlich",10403,909937,76
200,"t20_1",1,"t20","COM(O)","PP>OBJ",4,"eher natürlich",13623,944046,83
168,"t20_1",1,"t20","COM(O)","PP>OBJ",1,"vollkommen unnatürlich",11879,176950,17
201,"t20_1",1,"t20","COM(O)","PP>OBJ",4,"eher natürlich",6810,421919,54
136,"t20_1",1,"t20","COM(O)","PP>OBJ",4,"eher natürlich",8905,364778,41
183,"t20_1",1,"t20","COM(O)","PP>OBJ",2,"eher unnatürlich",11630,1055388,73
130,"t20_1",1,"t20","COM(O)","PP>OBJ",4,"eher natürlich",18281,509209,38
206,"t20_1",1,"t20","COM(O)","PP>OBJ",4,"eher natürlich",10800,480668,51
167,"t20_1",1,"t20","COM(O)","PP>OBJ",2,"eher unnatürlich",6713,753474,84
138,"t20_1",1,"t20","COM(O)","PP>OBJ",2,"eher unnatürlich",5379,770561,105
199,"t20_1",1,"t20","COM(O)","PP>OBJ",4,"eher natürlich",17767,215926,16
210,"t20_1",1,"t20","COM(O)","PP>OBJ",4,"eher natürlich",10501,1187035,104
187,"t20_1",1,"t20","COM(O)","PP>OBJ",4,"eher natürlich",10659,671274,84
203,"t20_1",1,"t20","COM(O)","PP>OBJ",5,"vollkommen natürlich",5159,255647,36
128,"t20_1",1,"t20","COM(O)","PP>OBJ",4,"eher natürlich",6570,745133,65
213,"t20_1",1,"t20","COM(O)","PP>OBJ",4,"eher natürlich",12087,537701,45
137,"t20_1",1,"t20","COM(O)","PP>OBJ",4,"eher natürlich",7793,58635,7
185,"t20_1",1,"t20","COM(O)","PP>OBJ",4,"eher natürlich",8530,393246,46
184,"t20_2",2,"t20","COM(O)","OBJ>PP",4,"eher natürlich",16039,390825,33
160,"t20_2",2,"t20","COM(O)","OBJ>PP",4,"eher natürlich",8650,157952,19
151,"t20_2",2,"t20","COM(O)","OBJ>PP",2,"eher unnatürlich",8195,326253,40
166,"t20_2",2,"t20","COM(O)","OBJ>PP",5,"vollkommen natürlich",5939,209441,34
174,"t20_2",2,"t20","COM(O)","OBJ>PP",5,"vollkommen natürlich",8065,96267,9
150,"t20_2",2,"t20","COM(O)","OBJ>PP",4,"eher natürlich",12721,758610,64
148,"t20_2",2,"t20","COM(O)","OBJ>PP",4,"eher natürlich",14652,611432,31
177,"t20_2",2,"t20","COM(O)","OBJ>PP",3,"keine Tendenz",16088,345033,30
182,"t20_2",2,"t20","COM(O)","OBJ>PP",4,"eher natürlich",9445,477374,45
134,"t20_2",2,"t20","COM(O)","OBJ>PP",4,"eher natürlich",7167,655868,87
171,"t20_2",2,"t20","COM(O)","OBJ>PP",2,"eher unnatürlich",8105,438425,47
156,"t20_2",2,"t20","COM(O)","OBJ>PP",4,"eher natürlich",10309,661642,61
162,"t20_2",2,"t20","COM(O)","OBJ>PP",5,"vollkommen natürlich",15373,170766,15
172,"t20_2",2,"t20","COM(O)","OBJ>PP",3,"keine Tendenz",7843,937357,88
194,"t20_2",2,"t20","COM(O)","OBJ>PP",4,"eher natürlich",11468,132977,13
135,"t20_2",2,"t20","COM(O)","OBJ>PP",3,"keine Tendenz",8312,776237,94
176,"t20_2",2,"t20","COM(O)","OBJ>PP",4,"eher natürlich",10168,332803,32
190,"t20_2",2,"t20","COM(O)","OBJ>PP",4,"eher natürlich",5781,141306,19
133,"t20_2",2,"t20","COM(O)","OBJ>PP",4,"eher natürlich",21094,206172,16
161,"t20_2",2,"t20","COM(O)","OBJ>PP",4,"eher natürlich",15700,349856,32
131,"t20_2",2,"t20","COM(O)","OBJ>PP",3,"keine Tendenz",8771,584974,68
165,"t20_2",2,"t20","COM(O)","OBJ>PP",4,"eher natürlich",10325,222510,24
157,"t20_2",2,"t20","COM(O)","OBJ>PP",4,"eher natürlich",10033,403779,39
159,"t20_2",2,"t20","COM(O)","OBJ>PP",5,"vollkommen natürlich",4144,552280,88
149,"t20_2",2,"t20","COM(O)","OBJ>PP",2,"eher unnatürlich",7564,620536,37
163,"t20_2",2,"t20","COM(O)","OBJ>PP",2,"eher unnatürlich",16812,228262,29
169,"t20_2",2,"t20","COM(O)","OBJ>PP",5,"vollkommen natürlich",7030,93529,11
196,"t20_2",2,"t20","COM(O)","OBJ>PP",5,"vollkommen natürlich",3805,556592,100
171,"t21_1",1,"t21","COM(O)","PP>OBJ",4,"eher natürlich",12380,75506,6
166,"t21_1",1,"t21","COM(O)","PP>OBJ",5,"vollkommen natürlich",9011,494616,73
163,"t21_1",1,"t21","COM(O)","PP>OBJ",2,"eher unnatürlich",6109,411840,56
184,"t21_1",1,"t21","COM(O)","PP>OBJ",2,"eher unnatürlich",6600,509412,47
159,"t21_1",1,"t21","COM(O)","PP>OBJ",2,"eher unnatürlich",4012,121856,15
182,"t21_1",1,"t21","COM(O)","PP>OBJ",4,"eher natürlich",6229,767022,78
150,"t21_1",1,"t21","COM(O)","PP>OBJ",2,"eher unnatürlich",20426,677687,57
177,"t21_1",1,"t21","COM(O)","PP>OBJ",4,"eher natürlich",6339,540888,54
172,"t21_1",1,"t21","COM(O)","PP>OBJ",4,"eher natürlich",7989,909028,85
160,"t21_1",1,"t21","COM(O)","PP>OBJ",2,"eher unnatürlich",6420,222704,30
133,"t21_1",1,"t21","COM(O)","PP>OBJ",2,"eher unnatürlich",13664,360294,28
151,"t21_1",1,"t21","COM(O)","PP>OBJ",4,"eher natürlich",5339,383661,47
194,"t21_1",1,"t21","COM(O)","PP>OBJ",4,"eher natürlich",6114,362849,41
135,"t21_1",1,"t21","COM(O)","PP>OBJ",3,"keine Tendenz",6283,165239,20
131,"t21_1",1,"t21","COM(O)","PP>OBJ",4,"eher natürlich",12362,188642,19
148,"t21_1",1,"t21","COM(O)","PP>OBJ",5,"vollkommen natürlich",147013,425112,18
156,"t21_1",1,"t21","COM(O)","PP>OBJ",2,"eher unnatürlich",5609,304907,23
161,"t21_1",1,"t21","COM(O)","PP>OBJ",3,"keine Tendenz",14342,980089,84
196,"t21_1",1,"t21","COM(O)","PP>OBJ",5,"vollkommen natürlich",5200,134183,20
162,"t21_1",1,"t21","COM(O)","PP>OBJ",5,"vollkommen natürlich",6374,756269,85
174,"t21_1",1,"t21","COM(O)","PP>OBJ",3,"keine Tendenz",8585,412456,46
190,"t21_1",1,"t21","COM(O)","PP>OBJ",2,"eher unnatürlich",4615,458595,65
176,"t21_1",1,"t21","COM(O)","PP>OBJ",5,"vollkommen natürlich",7545,421418,44
169,"t21_1",1,"t21","COM(O)","PP>OBJ",5,"vollkommen natürlich",4287,116939,15
157,"t21_1",1,"t21","COM(O)","PP>OBJ",4,"eher natürlich",5994,849840,87
134,"t21_1",1,"t21","COM(O)","PP>OBJ",5,"vollkommen natürlich",9082,101334,10
165,"t21_1",1,"t21","COM(O)","PP>OBJ",4,"eher natürlich",9007,120137,14
149,"t21_1",1,"t21","COM(O)","PP>OBJ",4,"eher natürlich",6455,502213,25
136,"t21_2",2,"t21","COM(O)","OBJ>PP",2,"eher unnatürlich",6328,455347,51
189,"t21_2",2,"t21","COM(O)","OBJ>PP",4,"eher natürlich",11458,991413,99
128,"t21_2",2,"t21","COM(O)","OBJ>PP",3,"keine Tendenz",17468,121476,10
130,"t21_2",2,"t21","COM(O)","OBJ>PP",4,"eher natürlich",9316,328898,23
210,"t21_2",2,"t21","COM(O)","OBJ>PP",4,"eher natürlich",10900,167445,13
203,"t21_2",2,"t21","COM(O)","OBJ>PP",4,"eher natürlich",5711,400984,56
200,"t21_2",2,"t21","COM(O)","OBJ>PP",5,"vollkommen natürlich",9998,338622,28
215,"t21_2",2,"t21","COM(O)","OBJ>PP",5,"vollkommen natürlich",5804,139961,17
206,"t21_2",2,"t21","COM(O)","OBJ>PP",2,"eher unnatürlich",8624,820112,93
179,"t21_2",2,"t21","COM(O)","OBJ>PP",4,"eher natürlich",7304,597847,70
137,"t21_2",2,"t21","COM(O)","OBJ>PP",5,"vollkommen natürlich",5069,156901,20
168,"t21_2",2,"t21","COM(O)","OBJ>PP",4,"eher natürlich",8410,742718,80
138,"t21_2",2,"t21","COM(O)","OBJ>PP",2,"eher unnatürlich",6156,233970,29
199,"t21_2",2,"t21","COM(O)","OBJ>PP",5,"vollkommen natürlich",13727,119502,9
201,"t21_2",2,"t21","COM(O)","OBJ>PP",4,"eher natürlich",7132,590399,75
187,"t21_2",2,"t21","COM(O)","OBJ>PP",4,"eher natürlich",8811,705252,88
197,"t21_2",2,"t21","COM(O)","OBJ>PP",5,"vollkommen natürlich",7166,1158276,105
167,"t21_2",2,"t21","COM(O)","OBJ>PP",3,"keine Tendenz",10201,99275,9
183,"t21_2",2,"t21","COM(O)","OBJ>PP",4,"eher natürlich",9624,1191474,85
132,"t21_2",2,"t21","COM(O)","OBJ>PP",2,"eher unnatürlich",5974,330972,44
185,"t21_2",2,"t21","COM(O)","OBJ>PP",5,"vollkommen natürlich",5049,697403,73
181,"t21_2",2,"t21","COM(O)","OBJ>PP",2,"eher unnatürlich",16616,622773,83
213,"t21_2",2,"t21","COM(O)","OBJ>PP",4,"eher natürlich",5458,505259,42
136,"t22_1",1,"t22","COM(O)","PP>OBJ",2,"eher unnatürlich",16158,299097,33
138,"t22_1",1,"t22","COM(O)","PP>OBJ",2,"eher unnatürlich",7706,553980,68
203,"t22_1",1,"t22","COM(O)","PP>OBJ",1,"vollkommen unnatürlich",7731,108717,14
187,"t22_1",1,"t22","COM(O)","PP>OBJ",5,"vollkommen natürlich",16947,825365,103
185,"t22_1",1,"t22","COM(O)","PP>OBJ",4,"eher natürlich",12843,193200,23
210,"t22_1",1,"t22","COM(O)","PP>OBJ",4,"eher natürlich",17679,1163895,102
181,"t22_1",1,"t22","COM(O)","PP>OBJ",4,"eher natürlich",4220,402050,50
199,"t22_1",1,"t22","COM(O)","PP>OBJ",3,"keine Tendenz",20447,1219476,91
137,"t22_1",1,"t22","COM(O)","PP>OBJ",4,"eher natürlich",12906,733035,86
197,"t22_1",1,"t22","COM(O)","PP>OBJ",4,"eher natürlich",15751,410999,27
167,"t22_1",1,"t22","COM(O)","PP>OBJ",2,"eher unnatürlich",6868,474909,51
206,"t22_1",1,"t22","COM(O)","PP>OBJ",4,"eher natürlich",6192,921913,105
201,"t22_1",1,"t22","COM(O)","PP>OBJ",3,"keine Tendenz",12348,439415,56
213,"t22_1",1,"t22","COM(O)","PP>OBJ",4,"eher natürlich",10373,370781,28
130,"t22_1",1,"t22","COM(O)","PP>OBJ",5,"vollkommen natürlich",10134,778589,62
132,"t22_1",1,"t22","COM(O)","PP>OBJ",4,"eher natürlich",5302,570186,80
183,"t22_1",1,"t22","COM(O)","PP>OBJ",1,"vollkommen unnatürlich",11012,792347,54
215,"t22_1",1,"t22","COM(O)","PP>OBJ",5,"vollkommen natürlich",6379,737651,93
179,"t22_1",1,"t22","COM(O)","PP>OBJ",5,"vollkommen natürlich",6939,628476,73
189,"t22_1",1,"t22","COM(O)","PP>OBJ",2,"eher unnatürlich",7510,786765,74
128,"t22_1",1,"t22","COM(O)","PP>OBJ",5,"vollkommen natürlich",12018,629274,54
168,"t22_1",1,"t22","COM(O)","PP>OBJ",2,"eher unnatürlich",6763,904580,101
200,"t22_1",1,"t22","COM(O)","PP>OBJ",5,"vollkommen natürlich",19838,762430,66
150,"t22_2",2,"t22","COM(O)","OBJ>PP",4,"eher natürlich",16531,464538,37
159,"t22_2",2,"t22","COM(O)","OBJ>PP",4,"eher natürlich",4318,191765,28
176,"t22_2",2,"t22","COM(O)","OBJ>PP",4,"eher natürlich",11267,760528,88
161,"t22_2",2,"t22","COM(O)","OBJ>PP",4,"eher natürlich",14056,1119205,94
172,"t22_2",2,"t22","COM(O)","OBJ>PP",4,"eher natürlich",16305,364308,31
162,"t22_2",2,"t22","COM(O)","OBJ>PP",2,"eher unnatürlich",14522,85308,6
190,"t22_2",2,"t22","COM(O)","OBJ>PP",4,"eher natürlich",7543,338796,48
163,"t22_2",2,"t22","COM(O)","OBJ>PP",4,"eher natürlich",4433,636889,89
171,"t22_2",2,"t22","COM(O)","OBJ>PP",4,"eher natürlich",10778,367517,39
131,"t22_2",2,"t22","COM(O)","OBJ>PP",5,"vollkommen natürlich",9271,295210,31
135,"t22_2",2,"t22","COM(O)","OBJ>PP",1,"vollkommen unnatürlich",6783,410886,52
174,"t22_2",2,"t22","COM(O)","OBJ>PP",4,"eher natürlich",6900,773781,100
194,"t22_2",2,"t22","COM(O)","OBJ>PP",5,"vollkommen natürlich",8368,440333,48
165,"t22_2",2,"t22","COM(O)","OBJ>PP",4,"eher natürlich",5889,637002,93
134,"t22_2",2,"t22","COM(O)","OBJ>PP",4,"eher natürlich",7420,196014,23
182,"t22_2",2,"t22","COM(O)","OBJ>PP",4,"eher natürlich",10157,130513,11
148,"t22_2",2,"t22","COM(O)","OBJ>PP",4,"eher natürlich",8102,1946430,101
151,"t22_2",2,"t22","COM(O)","OBJ>PP",4,"eher natürlich",8004,683096,82
157,"t22_2",2,"t22","COM(O)","OBJ>PP",2,"eher unnatürlich",31249,167226,10
160,"t22_2",2,"t22","COM(O)","OBJ>PP",4,"eher natürlich",3356,480767,68
196,"t22_2",2,"t22","COM(O)","OBJ>PP",4,"eher natürlich",3637,397024,70
184,"t22_2",2,"t22","COM(O)","OBJ>PP",4,"eher natürlich",5043,631107,64
177,"t22_2",2,"t22","COM(O)","OBJ>PP",4,"eher natürlich",12379,253777,20
169,"t22_2",2,"t22","COM(O)","OBJ>PP",5,"vollkommen natürlich",5144,593923,105
133,"t22_2",2,"t22","COM(O)","OBJ>PP",3,"keine Tendenz",15485,403987,31
166,"t22_2",2,"t22","COM(O)","OBJ>PP",5,"vollkommen natürlich",4600,512606,76
149,"t22_2",2,"t22","COM(O)","OBJ>PP",5,"vollkommen natürlich",9174,912943,63
156,"t22_2",2,"t22","COM(O)","OBJ>PP",2,"eher unnatürlich",9110,368031,30
172,"t23_1",1,"t23","COM(O)","PP>OBJ",3,"keine Tendenz",9242,507383,44
171,"t23_1",1,"t23","COM(O)","PP>OBJ",3,"keine Tendenz",11219,99124,8
176,"t23_1",1,"t23","COM(O)","PP>OBJ",1,"vollkommen unnatürlich",16790,241214,22
165,"t23_1",1,"t23","COM(O)","PP>OBJ",2,"eher unnatürlich",6046,67768,8
151,"t23_1",1,"t23","COM(O)","PP>OBJ",3,"keine Tendenz",10098,477685,58
177,"t23_1",1,"t23","COM(O)","PP>OBJ",4,"eher natürlich",4596,895547,100
182,"t23_1",1,"t23","COM(O)","PP>OBJ",4,"eher natürlich",5453,878416,92
190,"t23_1",1,"t23","COM(O)","PP>OBJ",2,"eher unnatürlich",12310,428171,60
162,"t23_1",1,"t23","COM(O)","PP>OBJ",5,"vollkommen natürlich",10451,564391,60
161,"t23_1",1,"t23","COM(O)","PP>OBJ",5,"vollkommen natürlich",9365,520640,48
131,"t23_1",1,"t23","COM(O)","PP>OBJ",5,"vollkommen natürlich",9969,141080,14
149,"t23_1",1,"t23","COM(O)","PP>OBJ",2,"eher unnatürlich",8953,1011354,73
133,"t23_1",1,"t23","COM(O)","PP>OBJ",2,"eher unnatürlich",16978,765534,60
148,"t23_1",1,"t23","COM(O)","PP>OBJ",5,"vollkommen natürlich",10196,1164631,59
163,"t23_1",1,"t23","COM(O)","PP>OBJ",2,"eher unnatürlich",6360,442125,61
196,"t23_1",1,"t23","COM(O)","PP>OBJ",3,"keine Tendenz",4496,203183,33
169,"t23_1",1,"t23","COM(O)","PP>OBJ",4,"eher natürlich",4192,502961,88
150,"t23_1",1,"t23","COM(O)","PP>OBJ",4,"eher natürlich",6506,1106212,103
166,"t23_1",1,"t23","COM(O)","PP>OBJ",4,"eher natürlich",10583,592121,90
159,"t23_1",1,"t23","COM(O)","PP>OBJ",4,"eher natürlich",6709,320428,48
184,"t23_1",1,"t23","COM(O)","PP>OBJ",4,"eher natürlich",5718,895012,99
134,"t23_1",1,"t23","COM(O)","PP>OBJ",4,"eher natürlich",12240,510218,66
156,"t23_1",1,"t23","COM(O)","PP>OBJ",2,"eher unnatürlich",5236,729959,70
135,"t23_1",1,"t23","COM(O)","PP>OBJ",4,"eher natürlich",7120,757039,92
174,"t23_1",1,"t23","COM(O)","PP>OBJ",4,"eher natürlich",5916,391664,43
157,"t23_1",1,"t23","COM(O)","PP>OBJ",2,"eher unnatürlich",6016,223049,17
194,"t23_1",1,"t23","COM(O)","PP>OBJ",4,"eher natürlich",12111,157970,16
160,"t23_1",1,"t23","COM(O)","PP>OBJ",4,"eher natürlich",6094,470520,66
136,"t23_2",2,"t23","COM(O)","OBJ>PP",4,"eher natürlich",8036,757229,87
128,"t23_2",2,"t23","COM(O)","OBJ>PP",4,"eher natürlich",7258,1123496,102
199,"t23_2",2,"t23","COM(O)","OBJ>PP",5,"vollkommen natürlich",11998,750253,55
197,"t23_2",2,"t23","COM(O)","OBJ>PP",5,"vollkommen natürlich",7127,948860,79
200,"t23_2",2,"t23","COM(O)","OBJ>PP",4,"eher natürlich",8566,509215,46
203,"t23_2",2,"t23","COM(O)","OBJ>PP",4,"eher natürlich",4862,837593,93
187,"t23_2",2,"t23","COM(O)","OBJ>PP",4,"eher natürlich",6750,502953,61
181,"t23_2",2,"t23","COM(O)","OBJ>PP",4,"eher natürlich",8482,364360,44
137,"t23_2",2,"t23","COM(O)","OBJ>PP",5,"vollkommen natürlich",7454,200204,28
189,"t23_2",2,"t23","COM(O)","OBJ>PP",4,"eher natürlich",11438,654302,59
167,"t23_2",2,"t23","COM(O)","OBJ>PP",4,"eher natürlich",4876,693619,76
213,"t23_2",2,"t23","COM(O)","OBJ>PP",4,"eher natürlich",20833,415255,32
210,"t23_2",2,"t23","COM(O)","OBJ>PP",5,"vollkommen natürlich",14658,1135724,100
185,"t23_2",2,"t23","COM(O)","OBJ>PP",5,"vollkommen natürlich",4353,718544,77
183,"t23_2",2,"t23","COM(O)","OBJ>PP",4,"eher natürlich",8841,1285718,97
215,"t23_2",2,"t23","COM(O)","OBJ>PP",5,"vollkommen natürlich",6852,682569,86
201,"t23_2",2,"t23","COM(O)","OBJ>PP",5,"vollkommen natürlich",6309,655536,83
206,"t23_2",2,"t23","COM(O)","OBJ>PP",2,"eher unnatürlich",7937,197228,19
179,"t23_2",2,"t23","COM(O)","OBJ>PP",4,"eher natürlich",6047,271651,30
130,"t23_2",2,"t23","COM(O)","OBJ>PP",2,"eher unnatürlich",6178,1097674,92
132,"t23_2",2,"t23","COM(O)","OBJ>PP",5,"vollkommen natürlich",5955,474131,65
168,"t23_2",2,"t23","COM(O)","OBJ>PP",5,"vollkommen natürlich",7029,59825,6
138,"t23_2",2,"t23","COM(O)","OBJ>PP",4,"eher natürlich",5234,503865,60
197,"t24_1",1,"t24","COM(O)","PP>OBJ",5,"vollkommen natürlich",11055,521239,36
185,"t24_1",1,"t24","COM(O)","PP>OBJ",4,"eher natürlich",6262,355076,40
183,"t24_1",1,"t24","COM(O)","PP>OBJ",2,"eher unnatürlich",9634,392745,27
130,"t24_1",1,"t24","COM(O)","PP>OBJ",2,"eher unnatürlich",14203,1122945,94
179,"t24_1",1,"t24","COM(O)","PP>OBJ",4,"eher natürlich",7594,537488,62
206,"t24_1",1,"t24","COM(O)","PP>OBJ",3,"keine Tendenz",8222,609549,65
132,"t24_1",1,"t24","COM(O)","PP>OBJ",2,"eher unnatürlich",7531,279004,37
187,"t24_1",1,"t24","COM(O)","PP>OBJ",5,"vollkommen natürlich",6377,784654,99
199,"t24_1",1,"t24","COM(O)","PP>OBJ",2,"eher unnatürlich",14439,474278,34
210,"t24_1",1,"t24","COM(O)","PP>OBJ",4,"eher natürlich",11894,909622,79
128,"t24_1",1,"t24","COM(O)","PP>OBJ",4,"eher natürlich",6476,1064876,95
136,"t24_1",1,"t24","COM(O)","PP>OBJ",4,"eher natürlich",6121,74335,8
203,"t24_1",1,"t24","COM(O)","PP>OBJ",2,"eher unnatürlich",5753,127735,17
215,"t24_1",1,"t24","COM(O)","PP>OBJ",5,"vollkommen natürlich",7542,388085,49
201,"t24_1",1,"t24","COM(O)","PP>OBJ",2,"eher unnatürlich",8913,680216,86
167,"t24_1",1,"t24","COM(O)","PP>OBJ",2,"eher unnatürlich",8341,176926,17
138,"t24_1",1,"t24","COM(O)","PP>OBJ",2,"eher unnatürlich",4775,671868,88
189,"t24_1",1,"t24","COM(O)","PP>OBJ",4,"eher natürlich",6188,561397,49
181,"t24_1",1,"t24","COM(O)","PP>OBJ",4,"eher natürlich",4441,323180,38
200,"t24_1",1,"t24","COM(O)","PP>OBJ",2,"eher unnatürlich",9751,1085670,97
137,"t24_1",1,"t24","COM(O)","PP>OBJ",1,"vollkommen unnatürlich",7665,250433,34
168,"t24_1",1,"t24","COM(O)","PP>OBJ",2,"eher unnatürlich",7323,865809,97
213,"t24_1",1,"t24","COM(O)","PP>OBJ",4,"eher natürlich",8208,923021,79
160,"t24_2",2,"t24","COM(O)","OBJ>PP",5,"vollkommen natürlich",6507,243242,33
182,"t24_2",2,"t24","COM(O)","OBJ>PP",5,"vollkommen natürlich",11625,790786,81
165,"t24_2",2,"t24","COM(O)","OBJ>PP",2,"eher unnatürlich",4883,291986,35
177,"t24_2",2,"t24","COM(O)","OBJ>PP",4,"eher natürlich",11530,835192,92
194,"t24_2",2,"t24","COM(O)","OBJ>PP",4,"eher natürlich",6378,721279,78
159,"t24_2",2,"t24","COM(O)","OBJ>PP",4,"eher natürlich",4802,288003,42
163,"t24_2",2,"t24","COM(O)","OBJ>PP",4,"eher natürlich",9234,752594,102
171,"t24_2",2,"t24","COM(O)","OBJ>PP",4,"eher natürlich",6555,164888,15
172,"t24_2",2,"t24","COM(O)","OBJ>PP",4,"eher natürlich",10372,142364,11
157,"t24_2",2,"t24","COM(O)","OBJ>PP",4,"eher natürlich",6017,676827,69
161,"t24_2",2,"t24","COM(O)","OBJ>PP",4,"eher natürlich",17931,1024129,87
156,"t24_2",2,"t24","COM(O)","OBJ>PP",1,"vollkommen unnatürlich",8621,91278,8
176,"t24_2",2,"t24","COM(O)","OBJ>PP",5,"vollkommen natürlich",7188,128895,13
133,"t24_2",2,"t24","COM(O)","OBJ>PP",5,"vollkommen natürlich",9083,1054599,85
190,"t24_2",2,"t24","COM(O)","OBJ>PP",3,"keine Tendenz",8281,505475,70
196,"t24_2",2,"t24","COM(O)","OBJ>PP",5,"vollkommen natürlich",4653,535015,95
174,"t24_2",2,"t24","COM(O)","OBJ>PP",4,"eher natürlich",6807,565763,67
148,"t24_2",2,"t24","COM(O)","OBJ>PP",4,"eher natürlich",16622,766895,44
149,"t24_2",2,"t24","COM(O)","OBJ>PP",5,"vollkommen natürlich",9850,1256747,102
151,"t24_2",2,"t24","COM(O)","OBJ>PP",4,"eher natürlich",8718,240203,29
134,"t24_2",2,"t24","COM(O)","OBJ>PP",4,"eher natürlich",6462,602699,79
166,"t24_2",2,"t24","COM(O)","OBJ>PP",5,"vollkommen natürlich",5357,542886,82
150,"t24_2",2,"t24","COM(O)","OBJ>PP",2,"eher unnatürlich",13822,819674,71
169,"t24_2",2,"t24","COM(O)","OBJ>PP",5,"vollkommen natürlich",4833,493675,86
131,"t24_2",2,"t24","COM(O)","OBJ>PP",3,"keine Tendenz",5282,799398,95
162,"t24_2",2,"t24","COM(O)","OBJ>PP",5,"vollkommen natürlich",8512,651153,72
184,"t24_2",2,"t24","COM(O)","OBJ>PP",4,"eher natürlich",9140,189967,18
135,"t24_2",2,"t24","COM(O)","OBJ>PP",4,"eher natürlich",7303,397339,50
135,"t25_1",1,"t25","ILOC","PP>OBJ",3,"keine Tendenz",9009,563911,71
150,"t25_1",1,"t25","ILOC","PP>OBJ",2,"eher unnatürlich",6675,88346,6
156,"t25_1",1,"t25","ILOC","PP>OBJ",2,"eher unnatürlich",11382,829599,81
149,"t25_1",1,"t25","ILOC","PP>OBJ",2,"eher unnatürlich",13040,1152776,90
174,"t25_1",1,"t25","ILOC","PP>OBJ",4,"eher natürlich",4395,750119,96
190,"t25_1",1,"t25","ILOC","PP>OBJ",2,"eher unnatürlich",5094,529738,74
184,"t25_1",1,"t25","ILOC","PP>OBJ",2,"eher unnatürlich",7816,756043,80
159,"t25_1",1,"t25","ILOC","PP>OBJ",4,"eher natürlich",5170,354561,55
131,"t25_1",1,"t25","ILOC","PP>OBJ",2,"eher unnatürlich",13705,626689,73
182,"t25_1",1,"t25","ILOC","PP>OBJ",4,"eher natürlich",10851,229041,20
171,"t25_1",1,"t25","ILOC","PP>OBJ",4,"eher natürlich",5926,762330,87
166,"t25_1",1,"t25","ILOC","PP>OBJ",4,"eher natürlich",4540,639899,99
157,"t25_1",1,"t25","ILOC","PP>OBJ",4,"eher natürlich",7264,977335,102
151,"t25_1",1,"t25","ILOC","PP>OBJ",4,"eher natürlich",6286,262309,32
176,"t25_1",1,"t25","ILOC","PP>OBJ",2,"eher unnatürlich",7322,830532,96
160,"t25_1",1,"t25","ILOC","PP>OBJ",4,"eher natürlich",6241,258395,35
165,"t25_1",1,"t25","ILOC","PP>OBJ",4,"eher natürlich",10464,84951,10
162,"t25_1",1,"t25","ILOC","PP>OBJ",1,"vollkommen unnatürlich",9288,255876,24
133,"t25_1",1,"t25","ILOC","PP>OBJ",2,"eher unnatürlich",14090,436460,34
169,"t25_1",1,"t25","ILOC","PP>OBJ",5,"vollkommen natürlich",8396,331367,53
161,"t25_1",1,"t25","ILOC","PP>OBJ",3,"keine Tendenz",13971,859609,75
148,"t25_1",1,"t25","ILOC","PP>OBJ",5,"vollkommen natürlich",12164,727022,41
134,"t25_1",1,"t25","ILOC","PP>OBJ",3,"keine Tendenz",6835,300652,39
163,"t25_1",1,"t25","ILOC","PP>OBJ",2,"eher unnatürlich",5899,397592,54
172,"t25_1",1,"t25","ILOC","PP>OBJ",3,"keine Tendenz",12514,531533,47
194,"t25_1",1,"t25","ILOC","PP>OBJ",4,"eher natürlich",39873,691260,73
196,"t25_1",1,"t25","ILOC","PP>OBJ",4,"eher natürlich",5575,182783,29
177,"t25_1",1,"t25","ILOC","PP>OBJ",4,"eher natürlich",5937,497746,49
201,"t25_2",2,"t25","ILOC","OBJ>PP",4,"eher natürlich",9413,382767,48
215,"t25_2",2,"t25","ILOC","OBJ>PP",5,"vollkommen natürlich",11235,338713,43
181,"t25_2",2,"t25","ILOC","OBJ>PP",5,"vollkommen natürlich",9341,703536,93
210,"t25_2",2,"t25","ILOC","OBJ>PP",5,"vollkommen natürlich",13182,831422,72
200,"t25_2",2,"t25","ILOC","OBJ>PP",5,"vollkommen natürlich",12382,813998,70
199,"t25_2",2,"t25","ILOC","OBJ>PP",4,"eher natürlich",20462,1369972,103
128,"t25_2",2,"t25","ILOC","OBJ>PP",4,"eher natürlich",8025,1083806,97
138,"t25_2",2,"t25","ILOC","OBJ>PP",2,"eher unnatürlich",7612,324308,40
167,"t25_2",2,"t25","ILOC","OBJ>PP",4,"eher natürlich",11488,259756,25
179,"t25_2",2,"t25","ILOC","OBJ>PP",4,"eher natürlich",8618,759284,89
189,"t25_2",2,"t25","ILOC","OBJ>PP",4,"eher natürlich",9091,598621,52
137,"t25_2",2,"t25","ILOC","OBJ>PP",5,"vollkommen natürlich",10160,314382,41
132,"t25_2",2,"t25","ILOC","OBJ>PP",3,"keine Tendenz",9855,96523,11
213,"t25_2",2,"t25","ILOC","OBJ>PP",4,"eher natürlich",8569,450952,35
130,"t25_2",2,"t25","ILOC","OBJ>PP",2,"eher unnatürlich",14017,200093,12
197,"t25_2",2,"t25","ILOC","OBJ>PP",5,"vollkommen natürlich",13019,689989,53
183,"t25_2",2,"t25","ILOC","OBJ>PP",4,"eher natürlich",10600,1141044,81
136,"t25_2",2,"t25","ILOC","OBJ>PP",4,"eher natürlich",7069,564787,65
187,"t25_2",2,"t25","ILOC","OBJ>PP",4,"eher natürlich",15837,322453,39
206,"t25_2",2,"t25","ILOC","OBJ>PP",4,"eher natürlich",15007,671735,72
185,"t25_2",2,"t25","ILOC","OBJ>PP",5,"vollkommen natürlich",7750,91502,11
203,"t25_2",2,"t25","ILOC","OBJ>PP",5,"vollkommen natürlich",5902,678583,63
168,"t25_2",2,"t25","ILOC","OBJ>PP",4,"eher natürlich",10390,514676,49
213,"t26_1",1,"t26","ILOC","PP>OBJ",4,"eher natürlich",10794,644109,54
210,"t26_1",1,"t26","ILOC","PP>OBJ",5,"vollkommen natürlich",14283,1023568,90
128,"t26_1",1,"t26","ILOC","PP>OBJ",5,"vollkommen natürlich",8022,418257,35
197,"t26_1",1,"t26","ILOC","PP>OBJ",5,"vollkommen natürlich",9131,572299,41
203,"t26_1",1,"t26","ILOC","PP>OBJ",5,"vollkommen natürlich",11580,203398,26
206,"t26_1",1,"t26","ILOC","PP>OBJ",4,"eher natürlich",10559,795557,90
132,"t26_1",1,"t26","ILOC","PP>OBJ",4,"eher natürlich",7334,691779,97
136,"t26_1",1,"t26","ILOC","PP>OBJ",5,"vollkommen natürlich",9008,383002,43
179,"t26_1",1,"t26","ILOC","PP>OBJ",5,"vollkommen natürlich",10781,718666,85
199,"t26_1",1,"t26","ILOC","PP>OBJ",5,"vollkommen natürlich",16414,1255364,94
130,"t26_1",1,"t26","ILOC","PP>OBJ",5,"vollkommen natürlich",11676,603682,46
201,"t26_1",1,"t26","ILOC","PP>OBJ",5,"vollkommen natürlich",12278,211542,25
185,"t26_1",1,"t26","ILOC","PP>OBJ",4,"eher natürlich",6320,848527,93
181,"t26_1",1,"t26","ILOC","PP>OBJ",4,"eher natürlich",6291,540131,72
168,"t26_1",1,"t26","ILOC","PP>OBJ",5,"vollkommen natürlich",10044,240157,23
189,"t26_1",1,"t26","ILOC","PP>OBJ",4,"eher natürlich",10876,428021,35
138,"t26_1",1,"t26","ILOC","PP>OBJ",3,"keine Tendenz",12173,177838,23
187,"t26_1",1,"t26","ILOC","PP>OBJ",4,"eher natürlich",9661,687107,86
215,"t26_1",1,"t26","ILOC","PP>OBJ",5,"vollkommen natürlich",9908,798911,103
183,"t26_1",1,"t26","ILOC","PP>OBJ",4,"eher natürlich",8029,732256,49
200,"t26_1",1,"t26","ILOC","PP>OBJ",5,"vollkommen natürlich",15838,847085,73
137,"t26_1",1,"t26","ILOC","PP>OBJ",5,"vollkommen natürlich",6973,603872,75
167,"t26_1",1,"t26","ILOC","PP>OBJ",3,"keine Tendenz",12750,219013,21
157,"t26_2",2,"t26","ILOC","OBJ>PP",4,"eher natürlich",29854,790890,81
196,"t26_2",2,"t26","ILOC","OBJ>PP",5,"vollkommen natürlich",7346,83072,10
151,"t26_2",2,"t26","ILOC","OBJ>PP",5,"vollkommen natürlich",9915,200415,24
150,"t26_2",2,"t26","ILOC","OBJ>PP",4,"eher natürlich",9374,867057,76
159,"t26_2",2,"t26","ILOC","OBJ>PP",4,"eher natürlich",6765,412420,65
149,"t26_2",2,"t26","ILOC","OBJ>PP",4,"eher natürlich",20985,571009,31
194,"t26_2",2,"t26","ILOC","OBJ>PP",4,"eher natürlich",13426,601811,67
176,"t26_2",2,"t26","ILOC","OBJ>PP",5,"vollkommen natürlich",13401,643295,74
156,"t26_2",2,"t26","ILOC","OBJ>PP",5,"vollkommen natürlich",16367,579651,52
162,"t26_2",2,"t26","ILOC","OBJ>PP",5,"vollkommen natürlich",12365,535820,57
174,"t26_2",2,"t26","ILOC","OBJ>PP",3,"keine Tendenz",8201,206659,23
133,"t26_2",2,"t26","ILOC","OBJ>PP",5,"vollkommen natürlich",19572,924932,75
171,"t26_2",2,"t26","ILOC","OBJ>PP",4,"eher natürlich",11164,683068,77
160,"t26_2",2,"t26","ILOC","OBJ>PP",4,"eher natürlich",4839,688670,98
169,"t26_2",2,"t26","ILOC","OBJ>PP",5,"vollkommen natürlich",5440,482397,84
182,"t26_2",2,"t26","ILOC","OBJ>PP",5,"vollkommen natürlich",10372,574897,54
172,"t26_2",2,"t26","ILOC","OBJ>PP",4,"eher natürlich",8641,635998,59
134,"t26_2",2,"t26","ILOC","OBJ>PP",4,"eher natürlich",8136,458773,60
190,"t26_2",2,"t26","ILOC","OBJ>PP",4,"eher natürlich",10421,77917,10
165,"t26_2",2,"t26","ILOC","OBJ>PP",5,"vollkommen natürlich",5571,491928,68
161,"t26_2",2,"t26","ILOC","OBJ>PP",5,"vollkommen natürlich",12457,168762,15
177,"t26_2",2,"t26","ILOC","OBJ>PP",5,"vollkommen natürlich",10034,169522,10
148,"t26_2",2,"t26","ILOC","OBJ>PP",5,"vollkommen natürlich",15725,1093040,54
184,"t26_2",2,"t26","ILOC","OBJ>PP",2,"eher unnatürlich",6017,940353,104
131,"t26_2",2,"t26","ILOC","OBJ>PP",4,"eher natürlich",10244,162605,16
135,"t26_2",2,"t26","ILOC","OBJ>PP",5,"vollkommen natürlich",9253,127855,15
163,"t26_2",2,"t26","ILOC","OBJ>PP",2,"eher unnatürlich",7878,375436,50
166,"t26_2",2,"t26","ILOC","OBJ>PP",5,"vollkommen natürlich",6694,255778,42
159,"t27_1",1,"t27","ILOC","PP>OBJ",4,"eher natürlich",5302,562659,90
163,"t27_1",1,"t27","ILOC","PP>OBJ",2,"eher unnatürlich",12042,612706,85
171,"t27_1",1,"t27","ILOC","PP>OBJ",4,"eher natürlich",7083,468735,51
182,"t27_1",1,"t27","ILOC","PP>OBJ",3,"keine Tendenz",9202,745854,75
161,"t27_1",1,"t27","ILOC","PP>OBJ",3,"keine Tendenz",15385,467041,43
162,"t27_1",1,"t27","ILOC","PP>OBJ",1,"vollkommen unnatürlich",5901,814440,94
157,"t27_1",1,"t27","ILOC","PP>OBJ",3,"keine Tendenz",32374,1027072,105
160,"t27_1",1,"t27","ILOC","PP>OBJ",2,"eher unnatürlich",9551,564601,80
131,"t27_1",1,"t27","ILOC","PP>OBJ",4,"eher natürlich",5294,307583,33
151,"t27_1",1,"t27","ILOC","PP>OBJ",4,"eher natürlich",12362,66604,6
196,"t27_1",1,"t27","ILOC","PP>OBJ",5,"vollkommen natürlich",4863,285621,49
169,"t27_1",1,"t27","ILOC","PP>OBJ",4,"eher natürlich",5138,519221,90
190,"t27_1",1,"t27","ILOC","PP>OBJ",3,"keine Tendenz",5290,259550,36
134,"t27_1",1,"t27","ILOC","PP>OBJ",2,"eher unnatürlich",11823,363308,47
133,"t27_1",1,"t27","ILOC","PP>OBJ",3,"keine Tendenz",74664,606824,46
172,"t27_1",1,"t27","ILOC","PP>OBJ",2,"eher unnatürlich",8540,1073600,104
174,"t27_1",1,"t27","ILOC","PP>OBJ",2,"eher unnatürlich",6955,703439,89
177,"t27_1",1,"t27","ILOC","PP>OBJ",3,"keine Tendenz",7001,321760,28
156,"t27_1",1,"t27","ILOC","PP>OBJ",2,"eher unnatürlich",12590,458742,40
166,"t27_1",1,"t27","ILOC","PP>OBJ",4,"eher natürlich",6617,164147,25
148,"t27_1",1,"t27","ILOC","PP>OBJ",4,"eher natürlich",12618,1067047,52
165,"t27_1",1,"t27","ILOC","PP>OBJ",2,"eher unnatürlich",12333,158394,18
149,"t27_1",1,"t27","ILOC","PP>OBJ",2,"eher unnatürlich",7295,985902,70
194,"t27_1",1,"t27","ILOC","PP>OBJ",4,"eher natürlich",8981,865595,94
150,"t27_1",1,"t27","ILOC","PP>OBJ",2,"eher unnatürlich",12218,627772,52
184,"t27_1",1,"t27","ILOC","PP>OBJ",2,"eher unnatürlich",16509,354986,30
176,"t27_1",1,"t27","ILOC","PP>OBJ",1,"vollkommen unnatürlich",7471,346366,34
135,"t27_1",1,"t27","ILOC","PP>OBJ",3,"keine Tendenz",9885,103937,12
201,"t27_2",2,"t27","ILOC","OBJ>PP",2,"eher unnatürlich",7976,361339,45
