"workerId","itemId","ENCODING","OPTION_0_CONDITION_NO","OPTION_1_CONDITION_NO","ADVERBIAL_TYPE","INTEGRATION","ANSWER","ANSWER_CONDITION_NO","ANSWER_POSITION","PRESENTATION_ORDER","PRESENTATION_ORDER_CONDITION","rt","time_elapsed","trial_index"
256,"t01_1_2","t01",1,2,"COM(S)","yes","OBJ>PP",2,"above","OBJ>PP >> PP>OBJ","condition 2 >> condition 1",7458,245059,25
241,"t01_1_2","t01",1,2,"COM(S)","yes","PP>OBJ",1,"above","PP>OBJ >> OBJ>PP","condition 1 >> condition 2",9321,173167,17
271,"t01_1_2","t01",1,2,"COM(S)","yes","PP>OBJ",1,"below","OBJ>PP >> PP>OBJ","condition 2 >> condition 1",8802,105967,12
243,"t01_1_2","t01",1,2,"COM(S)","yes","PP>OBJ",1,"below","OBJ>PP >> PP>OBJ","condition 2 >> condition 1",9377,418833,40
246,"t01_1_2","t01",1,2,"COM(S)","yes","OBJ>PP",2,"below","PP>OBJ >> OBJ>PP","condition 1 >> condition 2",18443,279802,29
263,"t01_1_2","t01",1,2,"COM(S)","yes","PP>OBJ",1,"below","OBJ>PP >> PP>OBJ","condition 2 >> condition 1",5373,475842,46
244,"t01_1_2","t01",1,2,"COM(S)","yes","OBJ>PP",2,"below","PP>OBJ >> OBJ>PP","condition 1 >> condition 2",6547,162151,16
258,"t01_1_2","t01",1,2,"COM(S)","yes","OBJ>PP",2,"above","OBJ>PP >> PP>OBJ","condition 2 >> condition 1",13909,612489,63
222,"t01_1_2","t01",1,2,"COM(S)","yes","OBJ>PP",2,"below","PP>OBJ >> OBJ>PP","condition 1 >> condition 2",6685,440903,47
220,"t01_1_2","t01",1,2,"COM(S)","yes","PP>OBJ",1,"above","PP>OBJ >> OBJ>PP","condition 1 >> condition 2",4802,180647,20
236,"t01_1_2","t01",1,2,"COM(S)","yes","OBJ>PP",2,"below","PP>OBJ >> OBJ>PP","condition 1 >> condition 2",13126,115682,10
225,"t01_1_2","t01",1,2,"COM(S)","yes","OBJ>PP",2,"above","OBJ>PP >> PP>OBJ","condition 2 >> condition 1",13505,250757,29
266,"t01_1_2","t01",1,2,"COM(S)","yes","PP>OBJ",1,"below","OBJ>PP >> PP>OBJ","condition 2 >> condition 1",8541,689995,64
224,"t01_1_2","t01",1,2,"COM(S)","yes","PP>OBJ",1,"below","OBJ>PP >> PP>OBJ","condition 2 >> condition 1",15225,286830,38
232,"t01_1_2","t01",1,2,"COM(S)","yes","OBJ>PP",2,"above","OBJ>PP >> PP>OBJ","condition 2 >> condition 1",7795,62539,10
238,"t01_1_2","t01",1,2,"COM(S)","yes","OBJ>PP",2,"below","PP>OBJ >> OBJ>PP","condition 1 >> condition 2",7527,521059,69
249,"t01_1_2","t01",1,2,"COM(S)","yes","PP>OBJ",1,"above","PP>OBJ >> OBJ>PP","condition 1 >> condition 2",12046,698137,57
228,"t01_1_2","t01",1,2,"COM(S)","yes","PP>OBJ",1,"below","OBJ>PP >> PP>OBJ","condition 2 >> condition 1",8806,242429,23
231,"t01_1_2","t01",1,2,"COM(S)","yes","OBJ>PP",2,"below","PP>OBJ >> OBJ>PP","condition 1 >> condition 2",8551,403226,50
227,"t01_1_2","t01",1,2,"COM(S)","yes","PP>OBJ",1,"above","PP>OBJ >> OBJ>PP","condition 1 >> condition 2",17160,195584,15
239,"t01_1_2","t01",1,2,"COM(S)","yes","PP>OBJ",1,"below","OBJ>PP >> PP>OBJ","condition 2 >> condition 1",6455,396598,45
257,"t01_1_2","t01",1,2,"COM(S)","yes","PP>OBJ",1,"below","OBJ>PP >> PP>OBJ","condition 2 >> condition 1",8583,395945,37
237,"t01_1_2","t01",1,2,"COM(S)","yes","PP>OBJ",1,"above","PP>OBJ >> OBJ>PP","condition 1 >> condition 2",10053,411404,41
234,"t01_1_2","t01",1,2,"COM(S)","yes","PP>OBJ",1,"below","OBJ>PP >> PP>OBJ","condition 2 >> condition 1",16531,150721,12
242,"t01_1_2","t01",1,2,"COM(S)","yes","PP>OBJ",1,"above","PP>OBJ >> OBJ>PP","condition 1 >> condition 2",13629,355944,31
253,"t01_1_2","t01",1,2,"COM(S)","yes","PP>OBJ",1,"above","PP>OBJ >> OBJ>PP","condition 1 >> condition 2",7613,315124,30
267,"t01_1_2","t01",1,2,"COM(S)","yes","PP>OBJ",1,"above","PP>OBJ >> OBJ>PP","condition 1 >> condition 2",17585,95037,6
230,"t01_1_2","t01",1,2,"COM(S)","yes","PP>OBJ",1,"above","PP>OBJ >> OBJ>PP","condition 1 >> condition 2",9724,378052,43
270,"t01_1_2","t01",1,2,"COM(S)","yes","PP>OBJ",1,"above","PP>OBJ >> OBJ>PP","condition 1 >> condition 2",12730,220403,19
221,"t01_1_2","t01",1,2,"COM(S)","yes","PP>OBJ",1,"above","PP>OBJ >> OBJ>PP","condition 1 >> condition 2",17308,610126,55
254,"t01_1_2","t01",1,2,"COM(S)","yes","OBJ>PP",2,"above","OBJ>PP >> PP>OBJ","condition 2 >> condition 1",15204,764984,56
229,"t01_1_2","t01",1,2,"COM(S)","yes","PP>OBJ",1,"below","OBJ>PP >> PP>OBJ","condition 2 >> condition 1",8010,210040,27
223,"t01_1_2","t01",1,2,"COM(S)","yes","PP>OBJ",1,"above","PP>OBJ >> OBJ>PP","condition 1 >> condition 2",11328,375636,39
220,"t02_1_2","t02",1,2,"COM(S)","yes","PP>OBJ",1,"below","OBJ>PP >> PP>OBJ","condition 2 >> condition 1",10698,139176,16
228,"t02_1_2","t02",1,2,"COM(S)","yes","PP>OBJ",1,"below","OBJ>PP >> PP>OBJ","condition 2 >> condition 1",10089,286320,29
267,"t02_1_2","t02",1,2,"COM(S)","yes","OBJ>PP",2,"below","PP>OBJ >> OBJ>PP","condition 1 >> condition 2",9216,415477,33
271,"t02_1_2","t02",1,2,"COM(S)","yes","PP>OBJ",1,"below","OBJ>PP >> PP>OBJ","condition 2 >> condition 1",6811,61210,7
238,"t02_1_2","t02",1,2,"COM(S)","yes","OBJ>PP",2,"below","PP>OBJ >> OBJ>PP","condition 1 >> condition 2",7456,351524,45
254,"t02_1_2","t02",1,2,"COM(S)","yes","PP>OBJ",1,"below","OBJ>PP >> PP>OBJ","condition 2 >> condition 1",17072,557890,39
224,"t02_1_2","t02",1,2,"COM(S)","yes","OBJ>PP",2,"below","PP>OBJ >> OBJ>PP","condition 1 >> condition 2",5907,251758,34
243,"t02_1_2","t02",1,2,"COM(S)","yes","PP>OBJ",1,"above","PP>OBJ >> OBJ>PP","condition 1 >> condition 2",7555,507013,48
222,"t02_1_2","t02",1,2,"COM(S)","yes","PP>OBJ",1,"above","PP>OBJ >> OBJ>PP","condition 1 >> condition 2",8824,421754,45
241,"t02_1_2","t02",1,2,"COM(S)","yes","OBJ>PP",2,"below","PP>OBJ >> OBJ>PP","condition 1 >> condition 2",18937,81484,7
244,"t02_1_2","t02",1,2,"COM(S)","yes","OBJ>PP",2,"below","PP>OBJ >> OBJ>PP","condition 1 >> condition 2",6922,657918,70
266,"t02_1_2","t02",1,2,"COM(S)","yes","PP>OBJ",1,"below","OBJ>PP >> PP>OBJ","condition 2 >> condition 1",14948,300689,23
231,"t02_1_2","t02",1,2,"COM(S)","yes","PP>OBJ",1,"below","OBJ>PP >> PP>OBJ","condition 2 >> condition 1",7168,278378,34
242,"t02_1_2","t02",1,2,"COM(S)","yes","PP>OBJ",1,"below","OBJ>PP >> PP>OBJ","condition 2 >> condition 1",14047,221609,18
258,"t02_1_2","t02",1,2,"COM(S)","yes","PP>OBJ",1,"above","PP>OBJ >> OBJ>PP","condition 1 >> condition 2",6679,636735,66
234,"t02_1_2","t02",1,2,"COM(S)","yes","OBJ>PP",2,"below","PP>OBJ >> OBJ>PP","condition 1 >> condition 2",6333,317356,27
257,"t02_1_2","t02",1,2,"COM(S)","yes","PP>OBJ",1,"above","PP>OBJ >> OBJ>PP","condition 1 >> condition 2",11952,266514,23
227,"t02_1_2","t02",1,2,"COM(S)","yes","PP>OBJ",1,"above","PP>OBJ >> OBJ>PP","condition 1 >> condition 2",10918,677995,57
239,"t02_1_2","t02",1,2,"COM(S)","yes","PP>OBJ",1,"above","PP>OBJ >> OBJ>PP","condition 1 >> condition 2",10731,173588,17
232,"t02_1_2","t02",1,2,"COM(S)","yes","PP>OBJ",1,"above","PP>OBJ >> OBJ>PP","condition 1 >> condition 2",3965,421739,67
236,"t02_1_2","t02",1,2,"COM(S)","yes","PP>OBJ",1,"above","PP>OBJ >> OBJ>PP","condition 1 >> condition 2",10090,545063,47
249,"t02_1_2","t02",1,2,"COM(S)","yes","OBJ>PP",2,"above","OBJ>PP >> PP>OBJ","condition 2 >> condition 1",17428,647089,51
223,"t02_1_2","t02",1,2,"COM(S)","yes","PP>OBJ",1,"above","PP>OBJ >> OBJ>PP","condition 1 >> condition 2",7041,129992,13
270,"t02_1_2","t02",1,2,"COM(S)","yes","OBJ>PP",2,"below","PP>OBJ >> OBJ>PP","condition 1 >> condition 2",9970,805112,69
246,"t02_1_2","t02",1,2,"COM(S)","yes","PP>OBJ",1,"below","OBJ>PP >> PP>OBJ","condition 2 >> condition 1",6839,409032,42
230,"t02_1_2","t02",1,2,"COM(S)","yes","OBJ>PP",2,"above","OBJ>PP >> PP>OBJ","condition 2 >> condition 1",11754,269368,29
253,"t02_1_2","t02",1,2,"COM(S)","yes","PP>OBJ",1,"below","OBJ>PP >> PP>OBJ","condition 2 >> condition 1",7886,277215,26
237,"t02_1_2","t02",1,2,"COM(S)","yes","PP>OBJ",1,"below","OBJ>PP >> PP>OBJ","condition 2 >> condition 1",10943,257781,27
263,"t02_1_2","t02",1,2,"COM(S)","yes","OBJ>PP",2,"below","PP>OBJ >> OBJ>PP","condition 1 >> condition 2",7121,537846,56
256,"t02_1_2","t02",1,2,"COM(S)","yes","PP>OBJ",1,"below","OBJ>PP >> PP>OBJ","condition 2 >> condition 1",4599,486429,48
225,"t02_1_2","t02",1,2,"COM(S)","yes","OBJ>PP",2,"above","OBJ>PP >> PP>OBJ","condition 2 >> condition 1",9069,461351,55
229,"t02_1_2","t02",1,2,"COM(S)","yes","PP>OBJ",1,"below","OBJ>PP >> PP>OBJ","condition 2 >> condition 1",7344,252715,32
221,"t02_1_2","t02",1,2,"COM(S)","yes","PP>OBJ",1,"below","OBJ>PP >> PP>OBJ","condition 2 >> condition 1",6672,548026,49
237,"t03_1_2","t03",1,2,"COM(S)","yes","OBJ>PP",2,"below","PP>OBJ >> OBJ>PP","condition 1 >> condition 2",5711,504940,52
227,"t03_1_2","t03",1,2,"COM(S)","yes","PP>OBJ",1,"below","OBJ>PP >> PP>OBJ","condition 2 >> condition 1",19777,243178,19
266,"t03_1_2","t03",1,2,"COM(S)","yes","PP>OBJ",1,"below","OBJ>PP >> PP>OBJ","condition 2 >> condition 1",9105,243756,19
256,"t03_1_2","t03",1,2,"COM(S)","yes","OBJ>PP",2,"below","PP>OBJ >> OBJ>PP","condition 1 >> condition 2",7329,604477,61
239,"t03_1_2","t03",1,2,"COM(S)","yes","PP>OBJ",1,"above","PP>OBJ >> OBJ>PP","condition 1 >> condition 2",8317,558434,70
243,"t03_1_2","t03",1,2,"COM(S)","yes","PP>OBJ",1,"above","PP>OBJ >> OBJ>PP","condition 1 >> condition 2",16239,588553,56
246,"t03_1_2","t03",1,2,"COM(S)","yes","PP>OBJ",1,"above","PP>OBJ >> OBJ>PP","condition 1 >> condition 2",6119,223591,24
236,"t03_1_2","t03",1,2,"COM(S)","yes","OBJ>PP",2,"below","PP>OBJ >> OBJ>PP","condition 1 >> condition 2",14044,87962,7
225,"t03_1_2","t03",1,2,"COM(S)","yes","OBJ>PP",2,"above","OBJ>PP >> PP>OBJ","condition 2 >> condition 1",8892,551448,66
270,"t03_1_2","t03",1,2,"COM(S)","yes","PP>OBJ",1,"below","OBJ>PP >> PP>OBJ","condition 2 >> condition 1",19236,76655,6
253,"t03_1_2","t03",1,2,"COM(S)","yes","PP>OBJ",1,"below","OBJ>PP >> PP>OBJ","condition 2 >> condition 1",6796,262053,24
220,"t03_1_2","t03",1,2,"COM(S)","yes","OBJ>PP",2,"above","OBJ>PP >> PP>OBJ","condition 2 >> condition 1",7731,289713,31
241,"t03_1_2","t03",1,2,"COM(S)","yes","OBJ>PP",2,"below","PP>OBJ >> OBJ>PP","condition 1 >> condition 2",5962,458463,56
234,"t03_1_2","t03",1,2,"COM(S)","yes","PP>OBJ",1,"below","OBJ>PP >> PP>OBJ","condition 2 >> condition 1",10937,666065,58
263,"t03_1_2","t03",1,2,"COM(S)","yes","PP>OBJ",1,"below","OBJ>PP >> PP>OBJ","condition 2 >> condition 1",7956,344762,21
228,"t03_1_2","t03",1,2,"COM(S)","yes","PP>OBJ",1,"below","OBJ>PP >> PP>OBJ","condition 2 >> condition 1",7684,632825,66
231,"t03_1_2","t03",1,2,"COM(S)","yes","PP>OBJ",1,"below","OBJ>PP >> PP>OBJ","condition 2 >> condition 1",8018,351264,43
223,"t03_1_2","t03",1,2,"COM(S)","yes","PP>OBJ",1,"above","PP>OBJ >> OBJ>PP","condition 1 >> condition 2",8007,616008,65
232,"t03_1_2","t03",1,2,"COM(S)","yes","PP>OBJ",1,"below","OBJ>PP >> PP>OBJ","condition 2 >> condition 1",6873,351773,54
258,"t03_1_2","t03",1,2,"COM(S)","yes","PP>OBJ",1,"below","OBJ>PP >> PP>OBJ","condition 2 >> condition 1",7718,97785,10
238,"t03_1_2","t03",1,2,"COM(S)","yes","PP>OBJ",1,"above","PP>OBJ >> OBJ>PP","condition 1 >> condition 2",5927,136268,17
267,"t03_1_2","t03",1,2,"COM(S)","yes","OBJ>PP",2,"below","PP>OBJ >> OBJ>PP","condition 1 >> condition 2",6947,662526,47
254,"t03_1_2","t03",1,2,"COM(S)","yes","OBJ>PP",2,"below","PP>OBJ >> OBJ>PP","condition 1 >> condition 2",8437,927880,69
257,"t03_1_2","t03",1,2,"COM(S)","yes","PP>OBJ",1,"above","PP>OBJ >> OBJ>PP","condition 1 >> condition 2",9849,689140,70
244,"t03_1_2","t03",1,2,"COM(S)","yes","OBJ>PP",2,"below","PP>OBJ >> OBJ>PP","condition 1 >> condition 2",5357,234933,24
249,"t03_1_2","t03",1,2,"COM(S)","yes","OBJ>PP",2,"below","PP>OBJ >> OBJ>PP","condition 1 >> condition 2",8589,672305,54
224,"t03_1_2","t03",1,2,"COM(S)","yes","OBJ>PP",2,"below","PP>OBJ >> OBJ>PP","condition 1 >> condition 2",5881,450034,62
221,"t03_1_2","t03",1,2,"COM(S)","yes","PP>OBJ",1,"below","OBJ>PP >> PP>OBJ","condition 2 >> condition 1",9892,237987,17
222,"t03_1_2","t03",1,2,"COM(S)","yes","PP>OBJ",1,"above","PP>OBJ >> OBJ>PP","condition 1 >> condition 2",11397,133684,11
230,"t03_1_2","t03",1,2,"COM(S)","yes","OBJ>PP",2,"above","OBJ>PP >> PP>OBJ","condition 2 >> condition 1",5333,479335,56
242,"t03_1_2","t03",1,2,"COM(S)","yes","PP>OBJ",1,"above","PP>OBJ >> OBJ>PP","condition 1 >> condition 2",8032,467959,45
271,"t03_1_2","t03",1,2,"COM(S)","yes","PP>OBJ",1,"above","PP>OBJ >> OBJ>PP","condition 1 >> condition 2",10719,90232,10
229,"t03_1_2","t03",1,2,"COM(S)","yes","OBJ>PP",2,"below","PP>OBJ >> OBJ>PP","condition 1 >> condition 2",6486,126393,16
258,"t04_1_2","t04",1,2,"COM(S)","yes","PP>OBJ",1,"below","OBJ>PP >> PP>OBJ","condition 2 >> condition 1",14098,557038,57
242,"t04_1_2","t04",1,2,"COM(S)","yes","PP>OBJ",1,"below","OBJ>PP >> PP>OBJ","condition 2 >> condition 1",6433,546296,56
238,"t04_1_2","t04",1,2,"COM(S)","yes","OBJ>PP",2,"below","PP>OBJ >> OBJ>PP","condition 1 >> condition 2",8215,59812,6
221,"t04_1_2","t04",1,2,"COM(S)","yes","PP>OBJ",1,"below","OBJ>PP >> PP>OBJ","condition 2 >> condition 1",8865,517123,45
234,"t04_1_2","t04",1,2,"COM(S)","yes","PP>OBJ",1,"below","OBJ>PP >> PP>OBJ","condition 2 >> condition 1",8490,414712,35
271,"t04_1_2","t04",1,2,"COM(S)","yes","PP>OBJ",1,"below","OBJ>PP >> PP>OBJ","condition 2 >> condition 1",8829,123235,14
244,"t04_1_2","t04",1,2,"COM(S)","yes","PP>OBJ",1,"below","OBJ>PP >> PP>OBJ","condition 2 >> condition 1",7391,548187,62
267,"t04_1_2","t04",1,2,"COM(S)","yes","OBJ>PP",2,"below","PP>OBJ >> OBJ>PP","condition 1 >> condition 2",17959,824642,66
224,"t04_1_2","t04",1,2,"COM(S)","yes","OBJ>PP",2,"above","OBJ>PP >> PP>OBJ","condition 2 >> condition 1",5857,507005,70
270,"t04_1_2","t04",1,2,"COM(S)","yes","PP>OBJ",1,"below","OBJ>PP >> PP>OBJ","condition 2 >> condition 1",13678,723248,61
225,"t04_1_2","t04",1,2,"COM(S)","yes","PP>OBJ",1,"below","OBJ>PP >> PP>OBJ","condition 2 >> condition 1",5117,68933,9
257,"t04_1_2","t04",1,2,"COM(S)","yes","PP>OBJ",1,"below","OBJ>PP >> PP>OBJ","condition 2 >> condition 1",8364,519162,53
243,"t04_1_2","t04",1,2,"COM(S)","yes","PP>OBJ",1,"above","PP>OBJ >> OBJ>PP","condition 1 >> condition 2",8746,356380,33
232,"t04_1_2","t04",1,2,"COM(S)","yes","PP>OBJ",1,"above","PP>OBJ >> OBJ>PP","condition 1 >> condition 2",4386,294520,44
266,"t04_1_2","t04",1,2,"COM(S)","yes","PP>OBJ",1,"below","OBJ>PP >> PP>OBJ","condition 2 >> condition 1",14324,127958,10
263,"t04_1_2","t04",1,2,"COM(S)","yes","PP>OBJ",1,"above","PP>OBJ >> OBJ>PP","condition 1 >> condition 2",204821,270408,10
249,"t04_1_2","t04",1,2,"COM(S)","yes","OBJ>PP",2,"below","PP>OBJ >> OBJ>PP","condition 1 >> condition 2",24759,168345,11
239,"t04_1_2","t04",1,2,"COM(S)","yes","PP>OBJ",1,"below","OBJ>PP >> PP>OBJ","condition 2 >> condition 1",9959,488518,58
254,"t04_1_2","t04",1,2,"COM(S)","yes","PP>OBJ",1,"below","OBJ>PP >> PP>OBJ","condition 2 >> condition 1",19207,440410,28
222,"t04_1_2","t04",1,2,"COM(S)","yes","OBJ>PP",2,"above","OBJ>PP >> PP>OBJ","condition 2 >> condition 1",7754,455166,49
227,"t04_1_2","t04",1,2,"COM(S)","yes","OBJ>PP",2,"above","OBJ>PP >> PP>OBJ","condition 2 >> condition 1",22946,573541,45
237,"t04_1_2","t04",1,2,"COM(S)","yes","PP>OBJ",1,"above","PP>OBJ >> OBJ>PP","condition 1 >> condition 2",7725,562313,61
223,"t04_1_2","t04",1,2,"COM(S)","yes","PP>OBJ",1,"below","OBJ>PP >> PP>OBJ","condition 2 >> condition 1",8025,280002,31
246,"t04_1_2","t04",1,2,"COM(S)","yes","PP>OBJ",1,"below","OBJ>PP >> PP>OBJ","condition 2 >> condition 1",6414,210279,22
241,"t04_1_2","t04",1,2,"COM(S)","yes","OBJ>PP",2,"above","OBJ>PP >> PP>OBJ","condition 2 >> condition 1",26198,117113,10
231,"t04_1_2","t04",1,2,"COM(S)","yes","PP>OBJ",1,"above","PP>OBJ >> OBJ>PP","condition 1 >> condition 2",8056,372148,46
229,"t04_1_2","t04",1,2,"COM(S)","yes","PP>OBJ",1,"below","OBJ>PP >> PP>OBJ","condition 2 >> condition 1",10525,278077,35
230,"t04_1_2","t04",1,2,"COM(S)","yes","PP>OBJ",1,"below","OBJ>PP >> PP>OBJ","condition 2 >> condition 1",5023,465675,54
228,"t04_1_2","t04",1,2,"COM(S)","yes","PP>OBJ",1,"below","OBJ>PP >> PP>OBJ","condition 2 >> condition 1",9476,180896,16
220,"t04_1_2","t04",1,2,"COM(S)","yes","PP>OBJ",1,"above","PP>OBJ >> OBJ>PP","condition 1 >> condition 2",16310,169987,18
256,"t04_1_2","t04",1,2,"COM(S)","yes","OBJ>PP",2,"below","PP>OBJ >> OBJ>PP","condition 1 >> condition 2",18891,281115,27
236,"t04_1_2","t04",1,2,"COM(S)","yes","PP>OBJ",1,"below","OBJ>PP >> PP>OBJ","condition 2 >> condition 1",9447,734800,68
253,"t04_1_2","t04",1,2,"COM(S)","yes","PP>OBJ",1,"below","OBJ>PP >> PP>OBJ","condition 2 >> condition 1",7438,176156,14
271,"t05_1_2","t05",1,2,"COM(S)","yes","OBJ>PP",2,"below","PP>OBJ >> OBJ>PP","condition 1 >> condition 2",5685,293853,37
249,"t05_1_2","t05",1,2,"COM(S)","yes","PP>OBJ",1,"above","PP>OBJ >> OBJ>PP","condition 1 >> condition 2",8446,307474,22
258,"t05_1_2","t05",1,2,"COM(S)","yes","OBJ>PP",2,"above","OBJ>PP >> PP>OBJ","condition 2 >> condition 1",7288,111975,12
234,"t05_1_2","t05",1,2,"COM(S)","yes","PP>OBJ",1,"above","PP>OBJ >> OBJ>PP","condition 1 >> condition 2",13034,515793,44
267,"t05_1_2","t05",1,2,"COM(S)","yes","OBJ>PP",2,"above","OBJ>PP >> PP>OBJ","condition 2 >> condition 1",11989,260215,18
253,"t05_1_2","t05",1,2,"COM(S)","yes","PP>OBJ",1,"above","PP>OBJ >> OBJ>PP","condition 1 >> condition 2",16627,347197,32
254,"t05_1_2","t05",1,2,"COM(S)","yes","PP>OBJ",1,"above","PP>OBJ >> OBJ>PP","condition 1 >> condition 2",15241,166288,10
256,"t05_1_2","t05",1,2,"COM(S)","yes","OBJ>PP",2,"below","PP>OBJ >> OBJ>PP","condition 1 >> condition 2",8812,194157,20
257,"t05_1_2","t05",1,2,"COM(S)","yes","PP>OBJ",1,"above","PP>OBJ >> OBJ>PP","condition 1 >> condition 2",10157,299123,26
225,"t05_1_2","t05",1,2,"COM(S)","yes","OBJ>PP",2,"below","PP>OBJ >> OBJ>PP","condition 1 >> condition 2",4855,372302,45
243,"t05_1_2","t05",1,2,"COM(S)","yes","PP>OBJ",1,"above","PP>OBJ >> OBJ>PP","condition 1 >> condition 2",26435,222530,20
241,"t05_1_2","t05",1,2,"COM(S)","yes","OBJ>PP",2,"above","OBJ>PP >> PP>OBJ","condition 2 >> condition 1",7168,249210,26
263,"t05_1_2","t05",1,2,"COM(S)","yes","OBJ>PP",2,"below","PP>OBJ >> OBJ>PP","condition 1 >> condition 2",4838,489293,49
229,"t05_1_2","t05",1,2,"COM(S)","yes","PP>OBJ",1,"above","PP>OBJ >> OBJ>PP","condition 1 >> condition 2",9758,309972,38
222,"t05_1_2","t05",1,2,"COM(S)","yes","PP>OBJ",1,"above","PP>OBJ >> OBJ>PP","condition 1 >> condition 2",8298,291560,30
231,"t05_1_2","t05",1,2,"COM(S)","yes","OBJ>PP",2,"below","PP>OBJ >> OBJ>PP","condition 1 >> condition 2",8039,440526,54
223,"t05_1_2","t05",1,2,"COM(S)","yes","PP>OBJ",1,"below","OBJ>PP >> PP>OBJ","condition 2 >> condition 1",12230,639864,68
232,"t05_1_2","t05",1,2,"COM(S)","yes","OBJ>PP",2,"above","OBJ>PP >> PP>OBJ","condition 2 >> condition 1",4604,176989,29
246,"t05_1_2","t05",1,2,"COM(S)","yes","OBJ>PP",2,"above","OBJ>PP >> PP>OBJ","condition 2 >> condition 1",17417,148670,14
227,"t05_1_2","t05",1,2,"COM(S)","yes","PP>OBJ",1,"below","OBJ>PP >> PP>OBJ","condition 2 >> condition 1",19169,424375,33
244,"t05_1_2","t05",1,2,"COM(S)","yes","PP>OBJ",1,"below","OBJ>PP >> PP>OBJ","condition 2 >> condition 1",13670,122170,11
270,"t05_1_2","t05",1,2,"COM(S)","yes","PP>OBJ",1,"below","OBJ>PP >> PP>OBJ","condition 2 >> condition 1",10328,751215,64
236,"t05_1_2","t05",1,2,"COM(S)","yes","OBJ>PP",2,"below","PP>OBJ >> OBJ>PP","condition 1 >> condition 2",9168,520200,44
237,"t05_1_2","t05",1,2,"COM(S)","yes","PP>OBJ",1,"above","PP>OBJ >> OBJ>PP","condition 1 >> condition 2",8445,548861,59
224,"t05_1_2","t05",1,2,"COM(S)","yes","OBJ>PP",2,"below","PP>OBJ >> OBJ>PP","condition 1 >> condition 2",5360,416508,56
221,"t05_1_2","t05",1,2,"COM(S)","yes","OBJ>PP",2,"below","PP>OBJ >> OBJ>PP","condition 1 >> condition 2",17275,285200,21
266,"t05_1_2","t05",1,2,"COM(S)","yes","PP>OBJ",1,"above","PP>OBJ >> OBJ>PP","condition 1 >> condition 2",11744,264626,21
238,"t05_1_2","t05",1,2,"COM(S)","yes","PP>OBJ",1,"below","OBJ>PP >> PP>OBJ","condition 2 >> condition 1",5895,461059,62
239,"t05_1_2","t05",1,2,"COM(S)","yes","OBJ>PP",2,"below","PP>OBJ >> OBJ>PP","condition 1 >> condition 2",13257,131128,12
228,"t05_1_2","t05",1,2,"COM(S)","yes","PP>OBJ",1,"below","OBJ>PP >> PP>OBJ","condition 2 >> condition 1",8478,419756,42
220,"t05_1_2","t05",1,2,"COM(S)","yes","PP>OBJ",1,"below","OBJ>PP >> PP>OBJ","condition 2 >> condition 1",5376,303489,33
242,"t05_1_2","t05",1,2,"COM(S)","yes","PP>OBJ",1,"above","PP>OBJ >> OBJ>PP","condition 1 >> condition 2",6315,577897,60
230,"t05_1_2","t05",1,2,"COM(S)","yes","PP>OBJ",1,"above","PP>OBJ >> OBJ>PP","condition 1 >> condition 2",6075,578918,70
249,"t06_1_2","t06",1,2,"COM(S)","yes","PP>OBJ",1,"above","PP>OBJ >> OBJ>PP","condition 1 >> condition 2",12165,602857,47
241,"t06_1_2","t06",1,2,"COM(S)","yes","PP>OBJ",1,"above","PP>OBJ >> OBJ>PP","condition 1 >> condition 2",11094,382230,44
224,"t06_1_2","t06",1,2,"COM(S)","yes","PP>OBJ",1,"above","PP>OBJ >> OBJ>PP","condition 1 >> condition 2",7423,367886,50
221,"t06_1_2","t06",1,2,"COM(S)","yes","OBJ>PP",2,"above","OBJ>PP >> PP>OBJ","condition 2 >> condition 1",13438,453660,37
229,"t06_1_2","t06",1,2,"COM(S)","yes","PP>OBJ",1,"above","PP>OBJ >> OBJ>PP","condition 1 >> condition 2",9118,106554,13
239,"t06_1_2","t06",1,2,"COM(S)","yes","PP>OBJ",1,"below","OBJ>PP >> PP>OBJ","condition 2 >> condition 1",7122,423714,49
220,"t06_1_2","t06",1,2,"COM(S)","yes","PP>OBJ",1,"above","PP>OBJ >> OBJ>PP","condition 1 >> condition 2",6297,365739,40
256,"t06_1_2","t06",1,2,"COM(S)","yes","PP>OBJ",1,"above","PP>OBJ >> OBJ>PP","condition 1 >> condition 2",14435,367509,36
231,"t06_1_2","t06",1,2,"COM(S)","yes","PP>OBJ",1,"below","OBJ>PP >> PP>OBJ","condition 2 >> condition 1",8290,139554,17
266,"t06_1_2","t06",1,2,"COM(S)","yes","PP>OBJ",1,"below","OBJ>PP >> PP>OBJ","condition 2 >> condition 1",11141,354799,28
263,"t06_1_2","t06",1,2,"COM(S)","yes","PP>OBJ",1,"above","PP>OBJ >> OBJ>PP","condition 1 >> condition 2",7927,303076,15
222,"t06_1_2","t06",1,2,"COM(S)","yes","OBJ>PP",2,"below","PP>OBJ >> OBJ>PP","condition 1 >> condition 2",9653,601756,67
242,"t06_1_2","t06",1,2,"COM(S)","yes","PP>OBJ",1,"above","PP>OBJ >> OBJ>PP","condition 1 >> condition 2",5129,407313,38
230,"t06_1_2","t06",1,2,"COM(S)","yes","PP>OBJ",1,"above","PP>OBJ >> OBJ>PP","condition 1 >> condition 2",7693,108580,10
238,"t06_1_2","t06",1,2,"COM(S)","yes","OBJ>PP",2,"above","OBJ>PP >> PP>OBJ","condition 2 >> condition 1",6958,221339,28
236,"t06_1_2","t06",1,2,"COM(S)","yes","PP>OBJ",1,"above","PP>OBJ >> OBJ>PP","condition 1 >> condition 2",13120,328438,26
267,"t06_1_2","t06",1,2,"COM(S)","yes","PP>OBJ",1,"below","OBJ>PP >> PP>OBJ","condition 2 >> condition 1",14098,337117,25
257,"t06_1_2","t06",1,2,"COM(S)","yes","PP>OBJ",1,"below","OBJ>PP >> PP>OBJ","condition 2 >> condition 1",8092,654153,67
270,"t06_1_2","t06",1,2,"COM(S)","yes","OBJ>PP",2,"above","OBJ>PP >> PP>OBJ","condition 2 >> condition 1",13018,546608,45
258,"t06_1_2","t06",1,2,"COM(S)","yes","PP>OBJ",1,"above","PP>OBJ >> OBJ>PP","condition 1 >> condition 2",7618,392694,39
227,"t06_1_2","t06",1,2,"COM(S)","yes","PP>OBJ",1,"below","OBJ>PP >> PP>OBJ","condition 2 >> condition 1",15046,119132,9
223,"t06_1_2","t06",1,2,"COM(S)","yes","PP>OBJ",1,"below","OBJ>PP >> PP>OBJ","condition 2 >> condition 1",12416,97117,9
225,"t06_1_2","t06",1,2,"COM(S)","yes","OBJ>PP",2,"above","OBJ>PP >> PP>OBJ","condition 2 >> condition 1",13478,314893,37
243,"t06_1_2","t06",1,2,"COM(S)","yes","PP>OBJ",1,"above","PP>OBJ >> OBJ>PP","condition 1 >> condition 2",14690,305968,28
237,"t06_1_2","t06",1,2,"COM(S)","yes","OBJ>PP",2,"below","PP>OBJ >> OBJ>PP","condition 1 >> condition 2",8154,397744,39
232,"t06_1_2","t06",1,2,"COM(S)","yes","PP>OBJ",1,"above","PP>OBJ >> OBJ>PP","condition 1 >> condition 2",4138,112254,16
254,"t06_1_2","t06",1,2,"COM(S)","yes","PP>OBJ",1,"above","PP>OBJ >> OBJ>PP","condition 1 >> condition 2",10898,415088,26
228,"t06_1_2","t06",1,2,"COM(S)","yes","PP>OBJ",1,"above","PP>OBJ >> OBJ>PP","condition 1 >> condition 2",6247,270849,27
234,"t06_1_2","t06",1,2,"COM(S)","yes","OBJ>PP",2,"above","OBJ>PP >> PP>OBJ","condition 2 >> condition 1",17944,597110,51
246,"t06_1_2","t06",1,2,"COM(S)","yes","PP>OBJ",1,"above","PP>OBJ >> OBJ>PP","condition 1 >> condition 2",8899,163698,16
253,"t06_1_2","t06",1,2,"COM(S)","yes","PP>OBJ",1,"above","PP>OBJ >> OBJ>PP","condition 1 >> condition 2",10403,688377,69
271,"t06_1_2","t06",1,2,"COM(S)","yes","OBJ>PP",2,"below","PP>OBJ >> OBJ>PP","condition 1 >> condition 2",7786,358338,43
244,"t06_1_2","t06",1,2,"COM(S)","yes","PP>OBJ",1,"below","OBJ>PP >> PP>OBJ","condition 2 >> condition 1",12913,515076,57
223,"t07_1_2","t07",1,2,"COM(S)","no","PP>OBJ",1,"above","PP>OBJ >> OBJ>PP","condition 1 >> condition 2",9376,180733,19
242,"t07_1_2","t07",1,2,"COM(S)","no","OBJ>PP",2,"below","PP>OBJ >> OBJ>PP","condition 1 >> condition 2",5814,621555,65
271,"t07_1_2","t07",1,2,"COM(S)","no","OBJ>PP",2,"below","PP>OBJ >> OBJ>PP","condition 1 >> condition 2",4773,455311,58
221,"t07_1_2","t07",1,2,"COM(S)","no","PP>OBJ",1,"above","PP>OBJ >> OBJ>PP","condition 1 >> condition 2",9574,533439,47
230,"t07_1_2","t07",1,2,"COM(S)","no","OBJ>PP",2,"below","PP>OBJ >> OBJ>PP","condition 1 >> condition 2",5374,504441,60
232,"t07_1_2","t07",1,2,"COM(S)","no","PP>OBJ",1,"above","PP>OBJ >> OBJ>PP","condition 1 >> condition 2",4792,326239,49
246,"t07_1_2","t07",1,2,"COM(S)","no","OBJ>PP",2,"above","OBJ>PP >> PP>OBJ","condition 2 >> condition 1",7810,561422,62
266,"t07_1_2","t07",1,2,"COM(S)","no","PP>OBJ",1,"above","PP>OBJ >> OBJ>PP","condition 1 >> condition 2",15514,187443,15
234,"t07_1_2","t07",1,2,"COM(S)","no","OBJ>PP",2,"below","PP>OBJ >> OBJ>PP","condition 1 >> condition 2",6293,278863,22
222,"t07_1_2","t07",1,2,"COM(S)","no","OBJ>PP",2,"above","OBJ>PP >> PP>OBJ","condition 2 >> condition 1",6263,383784,40
253,"t07_1_2","t07",1,2,"COM(S)","no","PP>OBJ",1,"below","OBJ>PP >> PP>OBJ","condition 2 >> condition 1",12718,206599,17
225,"t07_1_2","t07",1,2,"COM(S)","no","OBJ>PP",2,"below","PP>OBJ >> OBJ>PP","condition 1 >> condition 2",6079,293560,35
254,"t07_1_2","t07",1,2,"COM(S)","no","PP>OBJ",1,"below","OBJ>PP >> PP>OBJ","condition 2 >> condition 1",15079,320692,21
249,"t07_1_2","t07",1,2,"COM(S)","no","PP>OBJ",1,"above","PP>OBJ >> OBJ>PP","condition 1 >> condition 2",16482,506633,39
224,"t07_1_2","t07",1,2,"COM(S)","no","OBJ>PP",2,"above","OBJ>PP >> PP>OBJ","condition 2 >> condition 1",5803,225329,29
237,"t07_1_2","t07",1,2,"COM(S)","no","PP>OBJ",1,"below","OBJ>PP >> PP>OBJ","condition 2 >> condition 1",5734,486494,50
270,"t07_1_2","t07",1,2,"COM(S)","no","OBJ>PP",2,"below","PP>OBJ >> OBJ>PP","condition 1 >> condition 2",11800,160070,13
257,"t07_1_2","t07",1,2,"COM(S)","no","PP>OBJ",1,"above","PP>OBJ >> OBJ>PP","condition 1 >> condition 2",7564,313426,28
267,"t07_1_2","t07",1,2,"COM(S)","no","OBJ>PP",2,"below","PP>OBJ >> OBJ>PP","condition 1 >> condition 2",8516,734035,56
239,"t07_1_2","t07",1,2,"COM(S)","no","OBJ>PP",2,"below","PP>OBJ >> OBJ>PP","condition 1 >> condition 2",15138,208999,20
244,"t07_1_2","t07",1,2,"COM(S)","no","OBJ>PP",2,"above","OBJ>PP >> PP>OBJ","condition 2 >> condition 1",10251,575651,65
228,"t07_1_2","t07",1,2,"COM(S)","no","PP>OBJ",1,"above","PP>OBJ >> OBJ>PP","condition 1 >> condition 2",13444,163327,14
241,"t07_1_2","t07",1,2,"COM(S)","no","OBJ>PP",2,"below","PP>OBJ >> OBJ>PP","condition 1 >> condition 2",8354,409898,49
229,"t07_1_2","t07",1,2,"COM(S)","no","PP>OBJ",1,"above","PP>OBJ >> OBJ>PP","condition 1 >> condition 2",6379,482527,63
231,"t07_1_2","t07",1,2,"COM(S)","no","OBJ>PP",2,"below","PP>OBJ >> OBJ>PP","condition 1 >> condition 2",14279,68793,7
263,"t07_1_2","t07",1,2,"COM(S)","no","OBJ>PP",2,"below","PP>OBJ >> OBJ>PP","condition 1 >> condition 2",5568,414040,35
258,"t07_1_2","t07",1,2,"COM(S)","no","OBJ>PP",2,"above","OBJ>PP >> PP>OBJ","condition 2 >> condition 1",9371,368810,37
220,"t07_1_2","t07",1,2,"COM(S)","no","OBJ>PP",2,"above","OBJ>PP >> PP>OBJ","condition 2 >> condition 1",3467,581756,67
243,"t07_1_2","t07",1,2,"COM(S)","no","OBJ>PP",2,"below","PP>OBJ >> OBJ>PP","condition 1 >> condition 2",18327,660109,61
256,"t07_1_2","t07",1,2,"COM(S)","no","PP>OBJ",1,"below","OBJ>PP >> PP>OBJ","condition 2 >> condition 1",8928,567362,58
236,"t07_1_2","t07",1,2,"COM(S)","no","PP>OBJ",1,"above","PP>OBJ >> OBJ>PP","condition 1 >> condition 2",14671,720399,66
227,"t07_1_2","t07",1,2,"COM(S)","no","PP>OBJ",1,"below","OBJ>PP >> PP>OBJ","condition 2 >> condition 1",4474,719851,63
238,"t07_1_2","t07",1,2,"COM(S)","no","OBJ>PP",2,"above","OBJ>PP >> PP>OBJ","condition 2 >> condition 1",5663,449707,60
266,"t08_1_2","t08",1,2,"COM(S)","no","PP>OBJ",1,"below","OBJ>PP >> PP>OBJ","condition 2 >> condition 1",6975,718516,68
229,"t08_1_2","t08",1,2,"COM(S)","no","PP>OBJ",1,"below","OBJ>PP >> PP>OBJ","condition 2 >> condition 1",9912,437344,57
241,"t08_1_2","t08",1,2,"COM(S)","no","OBJ>PP",2,"below","PP>OBJ >> OBJ>PP","condition 1 >> condition 2",9905,542041,69
223,"t08_1_2","t08",1,2,"COM(S)","no","PP>OBJ",1,"above","PP>OBJ >> OBJ>PP","condition 1 >> condition 2",9388,218766,23
228,"t08_1_2","t08",1,2,"COM(S)","no","OBJ>PP",2,"below","PP>OBJ >> OBJ>PP","condition 1 >> condition 2",9538,656418,69
239,"t08_1_2","t08",1,2,"COM(S)","no","PP>OBJ",1,"below","OBJ>PP >> PP>OBJ","condition 2 >> condition 1",6333,278235,29
221,"t08_1_2","t08",1,2,"COM(S)","no","OBJ>PP",2,"above","OBJ>PP >> PP>OBJ","condition 2 >> condition 1",14081,100067,7
232,"t08_1_2","t08",1,2,"COM(S)","no","OBJ>PP",2,"below","PP>OBJ >> OBJ>PP","condition 1 >> condition 2",6881,51363,8
271,"t08_1_2","t08",1,2,"COM(S)","no","OBJ>PP",2,"below","PP>OBJ >> OBJ>PP","condition 1 >> condition 2",8286,488948,63
267,"t08_1_2","t08",1,2,"COM(S)","no","OBJ>PP",2,"below","PP>OBJ >> OBJ>PP","condition 1 >> condition 2",10072,295876,21
236,"t08_1_2","t08",1,2,"COM(S)","no","PP>OBJ",1,"below","OBJ>PP >> PP>OBJ","condition 2 >> condition 1",10213,587826,52
258,"t08_1_2","t08",1,2,"COM(S)","no","OBJ>PP",2,"below","PP>OBJ >> OBJ>PP","condition 1 >> condition 2",9552,508501,52
224,"t08_1_2","t08",1,2,"COM(S)","no","OBJ>PP",2,"above","OBJ>PP >> PP>OBJ","condition 2 >> condition 1",6566,105303,11
244,"t08_1_2","t08",1,2,"COM(S)","no","OBJ>PP",2,"below","PP>OBJ >> OBJ>PP","condition 1 >> condition 2",7938,260817,26
231,"t08_1_2","t08",1,2,"COM(S)","no","OBJ>PP",2,"below","PP>OBJ >> OBJ>PP","condition 1 >> condition 2",7663,195917,24
256,"t08_1_2","t08",1,2,"COM(S)","no","OBJ>PP",2,"below","PP>OBJ >> OBJ>PP","condition 1 >> condition 2",8578,79842,8
225,"t08_1_2","t08",1,2,"COM(S)","no","OBJ>PP",2,"below","PP>OBJ >> OBJ>PP","condition 1 >> condition 2",7523,407849,49
249,"t08_1_2","t08",1,2,"COM(S)","no","OBJ>PP",2,"above","OBJ>PP >> PP>OBJ","condition 2 >> condition 1",21238,359065,25
237,"t08_1_2","t08",1,2,"COM(S)","no","PP>OBJ",1,"below","OBJ>PP >> PP>OBJ","condition 2 >> condition 1",6791,622339,70
253,"t08_1_2","t08",1,2,"COM(S)","no","OBJ>PP",2,"above","OBJ>PP >> PP>OBJ","condition 2 >> condition 1",23709,134789,10
230,"t08_1_2","t08",1,2,"COM(S)","no","OBJ>PP",2,"below","PP>OBJ >> OBJ>PP","condition 1 >> condition 2",9381,284758,31
243,"t08_1_2","t08",1,2,"COM(S)","no","PP>OBJ",1,"above","PP>OBJ >> OBJ>PP","condition 1 >> condition 2",7797,401300,38
257,"t08_1_2","t08",1,2,"COM(S)","no","PP>OBJ",1,"above","PP>OBJ >> OBJ>PP","condition 1 >> condition 2",7150,485876,49
220,"t08_1_2","t08",1,2,"COM(S)","no","OBJ>PP",2,"above","OBJ>PP >> PP>OBJ","condition 2 >> condition 1",15760,69928,7
234,"t08_1_2","t08",1,2,"COM(S)","no","OBJ>PP",2,"below","PP>OBJ >> OBJ>PP","condition 1 >> condition 2",14515,177956,15
242,"t08_1_2","t08",1,2,"COM(S)","no","OBJ>PP",2,"above","OBJ>PP >> PP>OBJ","condition 2 >> condition 1",10070,603030,63
270,"t08_1_2","t08",1,2,"COM(S)","no","OBJ>PP",2,"below","PP>OBJ >> OBJ>PP","condition 1 >> condition 2",6875,411961,35
227,"t08_1_2","t08",1,2,"COM(S)","no","PP>OBJ",1,"below","OBJ>PP >> PP>OBJ","condition 2 >> condition 1",7606,752564,67
263,"t08_1_2","t08",1,2,"COM(S)","no","OBJ>PP",2,"below","PP>OBJ >> OBJ>PP","condition 1 >> condition 2",6040,424768,37
246,"t08_1_2","t08",1,2,"COM(S)","no","OBJ>PP",2,"below","PP>OBJ >> OBJ>PP","condition 1 >> condition 2",6391,467618,50
238,"t08_1_2","t08",1,2,"COM(S)","no","PP>OBJ",1,"below","OBJ>PP >> PP>OBJ","condition 2 >> condition 1",11288,190844,23
254,"t08_1_2","t08",1,2,"COM(S)","no","PP>OBJ",1,"below","OBJ>PP >> PP>OBJ","condition 2 >> condition 1",8803,879026,64
222,"t08_1_2","t08",1,2,"COM(S)","no","PP>OBJ",1,"above","PP>OBJ >> OBJ>PP","condition 1 >> condition 2",13683,105286,8
239,"t09_1_2","t09",1,2,"COM(S)","no","OBJ>PP",2,"below","PP>OBJ >> OBJ>PP","condition 1 >> condition 2",5668,379650,42
257,"t09_1_2","t09",1,2,"COM(S)","no","PP>OBJ",1,"above","PP>OBJ >> OBJ>PP","condition 1 >> condition 2",13643,354632,32
271,"t09_1_2","t09",1,2,"COM(S)","no","OBJ>PP",2,"below","PP>OBJ >> OBJ>PP","condition 1 >> condition 2",5714,531269,70
224,"t09_1_2","t09",1,2,"COM(S)","no","OBJ>PP",2,"above","OBJ>PP >> PP>OBJ","condition 2 >> condition 1",10440,157550,19
241,"t09_1_2","t09",1,2,"COM(S)","no","PP>OBJ",1,"below","OBJ>PP >> PP>OBJ","condition 2 >> condition 1",13642,225269,23
249,"t09_1_2","t09",1,2,"COM(S)","no","PP>OBJ",1,"above","PP>OBJ >> OBJ>PP","condition 1 >> condition 2",23863,251577,17
254,"t09_1_2","t09",1,2,"COM(S)","no","OBJ>PP",2,"below","PP>OBJ >> OBJ>PP","condition 1 >> condition 2",19229,127578,8
231,"t09_1_2","t09",1,2,"COM(S)","no","OBJ>PP",2,"below","PP>OBJ >> OBJ>PP","condition 1 >> condition 2",6375,458480,56
244,"t09_1_2","t09",1,2,"COM(S)","no","OBJ>PP",2,"above","OBJ>PP >> PP>OBJ","condition 2 >> condition 1",23581,102040,9
234,"t09_1_2","t09",1,2,"COM(S)","no","OBJ>PP",2,"above","OBJ>PP >> PP>OBJ","condition 2 >> condition 1",11488,305317,25
243,"t09_1_2","t09",1,2,"COM(S)","no","OBJ>PP",2,"above","OBJ>PP >> PP>OBJ","condition 2 >> condition 1",13769,550013,53
220,"t09_1_2","t09",1,2,"COM(S)","no","OBJ>PP",2,"below","PP>OBJ >> OBJ>PP","condition 1 >> condition 2",6983,616319,70
263,"t09_1_2","t09",1,2,"COM(S)","no","PP>OBJ",1,"above","PP>OBJ >> OBJ>PP","condition 1 >> condition 2",6269,508981,52
221,"t09_1_2","t09",1,2,"COM(S)","no","PP>OBJ",1,"below","OBJ>PP >> PP>OBJ","condition 2 >> condition 1",9036,576804,52
227,"t09_1_2","t09",1,2,"COM(S)","no","PP>OBJ",1,"below","OBJ>PP >> PP>OBJ","condition 2 >> condition 1",16925,305999,24
236,"t09_1_2","t09",1,2,"COM(S)","no","PP>OBJ",1,"below","OBJ>PP >> PP>OBJ","condition 2 >> condition 1",8033,648088,60
222,"t09_1_2","t09",1,2,"COM(S)","no","PP>OBJ",1,"above","PP>OBJ >> OBJ>PP","condition 1 >> condition 2",7912,582831,65
230,"t09_1_2","t09",1,2,"COM(S)","no","OBJ>PP",2,"below","PP>OBJ >> OBJ>PP","condition 1 >> condition 2",8588,133394,13
267,"t09_1_2","t09",1,2,"COM(S)","no","OBJ>PP",2,"below","PP>OBJ >> OBJ>PP","condition 1 >> condition 2",12571,767667,60
242,"t09_1_2","t09",1,2,"COM(S)","no","PP>OBJ",1,"above","PP>OBJ >> OBJ>PP","condition 1 >> condition 2",9699,372328,33
266,"t09_1_2","t09",1,2,"COM(S)","no","OBJ>PP",2,"below","PP>OBJ >> OBJ>PP","condition 1 >> condition 2",6652,491477,42
229,"t09_1_2","t09",1,2,"COM(S)","no","OBJ>PP",2,"above","OBJ>PP >> PP>OBJ","condition 2 >> condition 1",7108,228109,29
256,"t09_1_2","t09",1,2,"COM(S)","no","PP>OBJ",1,"above","PP>OBJ >> OBJ>PP","condition 1 >> condition 2",10756,317097,30
228,"t09_1_2","t09",1,2,"COM(S)","no","PP>OBJ",1,"below","OBJ>PP >> PP>OBJ","condition 2 >> condition 1",8807,517025,52
246,"t09_1_2","t09",1,2,"COM(S)","no","PP>OBJ",1,"below","OBJ>PP >> PP>OBJ","condition 2 >> condition 1",11890,370433,37
237,"t09_1_2","t09",1,2,"COM(S)","no","PP>OBJ",1,"below","OBJ>PP >> PP>OBJ","condition 2 >> condition 1",8215,579853,64
232,"t09_1_2","t09",1,2,"COM(S)","no","OBJ>PP",2,"above","OBJ>PP >> PP>OBJ","condition 2 >> condition 1",4604,128461,20
253,"t09_1_2","t09",1,2,"COM(S)","no","PP>OBJ",1,"below","OBJ>PP >> PP>OBJ","condition 2 >> condition 1",6006,356213,34
270,"t09_1_2","t09",1,2,"COM(S)","no","OBJ>PP",2,"below","PP>OBJ >> OBJ>PP","condition 1 >> condition 2",13269,99843,8
238,"t09_1_2","t09",1,2,"COM(S)","no","OBJ>PP",2,"below","PP>OBJ >> OBJ>PP","condition 1 >> condition 2",6454,210228,26
223,"t09_1_2","t09",1,2,"COM(S)","no","PP>OBJ",1,"above","PP>OBJ >> OBJ>PP","condition 1 >> condition 2",11048,118401,11
258,"t09_1_2","t09",1,2,"COM(S)","no","OBJ>PP",2,"above","OBJ>PP >> PP>OBJ","condition 2 >> condition 1",9070,663433,69
225,"t09_1_2","t09",1,2,"COM(S)","no","OBJ>PP",2,"below","PP>OBJ >> OBJ>PP","condition 1 >> condition 2",8188,513299,62
254,"t10_1_2","t10",1,2,"COM(S)","no","PP>OBJ",1,"above","PP>OBJ >> OBJ>PP","condition 1 >> condition 2",14568,224618,13
238,"t10_1_2","t10",1,2,"COM(S)","no","OBJ>PP",2,"below","PP>OBJ >> OBJ>PP","condition 1 >> condition 2",8263,81796,9
267,"t10_1_2","t10",1,2,"COM(S)","no","OBJ>PP",2,"below","PP>OBJ >> OBJ>PP","condition 1 >> condition 2",11371,457695,36
227,"t10_1_2","t10",1,2,"COM(S)","no","PP>OBJ",1,"below","OBJ>PP >> PP>OBJ","condition 2 >> condition 1",6436,764263,69
243,"t10_1_2","t10",1,2,"COM(S)","no","OBJ>PP",2,"below","PP>OBJ >> OBJ>PP","condition 1 >> condition 2",10305,710343,67
253,"t10_1_2","t10",1,2,"COM(S)","no","PP>OBJ",1,"above","PP>OBJ >> OBJ>PP","condition 1 >> condition 2",11807,241005,21
242,"t10_1_2","t10",1,2,"COM(S)","no","PP>OBJ",1,"below","OBJ>PP >> PP>OBJ","condition 2 >> condition 1",4557,397007,36
271,"t10_1_2","t10",1,2,"COM(S)","no","OBJ>PP",2,"below","PP>OBJ >> OBJ>PP","condition 1 >> condition 2",7961,164671,19
249,"t10_1_2","t10",1,2,"COM(S)","no","OBJ>PP",2,"below","PP>OBJ >> OBJ>PP","condition 1 >> condition 2",12165,396960,29
244,"t10_1_2","t10",1,2,"COM(S)","no","OBJ>PP",2,"above","OBJ>PP >> PP>OBJ","condition 2 >> condition 1",7286,149419,14
266,"t10_1_2","t10",1,2,"COM(S)","no","OBJ>PP",2,"below","PP>OBJ >> OBJ>PP","condition 1 >> condition 2",10343,548364,49
221,"t10_1_2","t10",1,2,"COM(S)","no","PP>OBJ",1,"below","OBJ>PP >> PP>OBJ","condition 2 >> condition 1",17576,392208,31
228,"t10_1_2","t10",1,2,"COM(S)","no","PP>OBJ",1,"above","PP>OBJ >> OBJ>PP","condition 1 >> condition 2",11046,211118,19
225,"t10_1_2","t10",1,2,"COM(S)","no","OBJ>PP",2,"above","OBJ>PP >> PP>OBJ","condition 2 >> condition 1",10411,281379,33
236,"t10_1_2","t10",1,2,"COM(S)","no","OBJ>PP",2,"above","OBJ>PP >> PP>OBJ","condition 2 >> condition 1",11517,687071,63
220,"t10_1_2","t10",1,2,"COM(S)","no","PP>OBJ",1,"below","OBJ>PP >> PP>OBJ","condition 2 >> condition 1",6863,520355,59
257,"t10_1_2","t10",1,2,"COM(S)","no","PP>OBJ",1,"above","PP>OBJ >> OBJ>PP","condition 1 >> condition 2",9834,471443,47
237,"t10_1_2","t10",1,2,"COM(S)","no","PP>OBJ",1,"above","PP>OBJ >> OBJ>PP","condition 1 >> condition 2",11234,236676,25
231,"t10_1_2","t10",1,2,"COM(S)","no","PP>OBJ",1,"below","OBJ>PP >> PP>OBJ","condition 2 >> condition 1",7157,125770,15
222,"t10_1_2","t10",1,2,"COM(S)","no","PP>OBJ",1,"above","PP>OBJ >> OBJ>PP","condition 1 >> condition 2",11233,265684,26
224,"t10_1_2","t10",1,2,"COM(S)","no","OBJ>PP",2,"above","OBJ>PP >> PP>OBJ","condition 2 >> condition 1",14010,62068,6
223,"t10_1_2","t10",1,2,"COM(S)","no","PP>OBJ",1,"below","OBJ>PP >> PP>OBJ","condition 2 >> condition 1",4981,481165,50
232,"t10_1_2","t10",1,2,"COM(S)","no","PP>OBJ",1,"below","OBJ>PP >> PP>OBJ","condition 2 >> condition 1",6983,38941,6
246,"t10_1_2","t10",1,2,"COM(S)","no","PP>OBJ",1,"above","PP>OBJ >> OBJ>PP","condition 1 >> condition 2",8238,394790,40
234,"t10_1_2","t10",1,2,"COM(S)","no","OBJ>PP",2,"above","OBJ>PP >> PP>OBJ","condition 2 >> condition 1",13016,469380,40
241,"t10_1_2","t10",1,2,"COM(S)","no","OBJ>PP",2,"above","OBJ>PP >> PP>OBJ","condition 2 >> condition 1",6799,259155,28
229,"t10_1_2","t10",1,2,"COM(S)","no","OBJ>PP",2,"above","OBJ>PP >> PP>OBJ","condition 2 >> condition 1",16919,86458,10
258,"t10_1_2","t10",1,2,"COM(S)","no","OBJ>PP",2,"above","OBJ>PP >> PP>OBJ","condition 2 >> condition 1",11368,196679,22
270,"t10_1_2","t10",1,2,"COM(S)","no","OBJ>PP",2,"above","OBJ>PP >> PP>OBJ","condition 2 >> condition 1",9366,629164,53
239,"t10_1_2","t10",1,2,"COM(S)","no","PP>OBJ",1,"below","OBJ>PP >> PP>OBJ","condition 2 >> condition 1",17110,474926,56
263,"t10_1_2","t10",1,2,"COM(S)","no","OBJ>PP",2,"below","PP>OBJ >> OBJ>PP","condition 1 >> condition 2",4725,352814,23
256,"t10_1_2","t10",1,2,"COM(S)","no","OBJ>PP",2,"above","OBJ>PP >> PP>OBJ","condition 2 >> condition 1",8937,476669,46
230,"t10_1_2","t10",1,2,"COM(S)","no","PP>OBJ",1,"below","OBJ>PP >> PP>OBJ","condition 2 >> condition 1",7033,299773,33
258,"t11_1_2","t11",1,2,"COM(S)","no","OBJ>PP",2,"below","PP>OBJ >> OBJ>PP","condition 1 >> condition 2",7343,129392,15
238,"t11_1_2","t11",1,2,"COM(S)","no","PP>OBJ",1,"above","PP>OBJ >> OBJ>PP","condition 1 >> condition 2",16391,288820,35
229,"t11_1_2","t11",1,2,"COM(S)","no","OBJ>PP",2,"below","PP>OBJ >> OBJ>PP","condition 1 >> condition 2",7356,370826,48
225,"t11_1_2","t11",1,2,"COM(S)","no","OBJ>PP",2,"below","PP>OBJ >> OBJ>PP","condition 1 >> condition 2",15589,395799,47
241,"t11_1_2","t11",1,2,"COM(S)","no","OBJ>PP",2,"below","PP>OBJ >> OBJ>PP","condition 1 >> condition 2",6265,504657,64
220,"t11_1_2","t11",1,2,"COM(S)","no","OBJ>PP",2,"below","PP>OBJ >> OBJ>PP","condition 1 >> condition 2",4819,468848,52
271,"t11_1_2","t11",1,2,"COM(S)","no","OBJ>PP",2,"below","PP>OBJ >> OBJ>PP","condition 1 >> condition 2",8034,136459,16
228,"t11_1_2","t11",1,2,"COM(S)","no","OBJ>PP",2,"above","OBJ>PP >> PP>OBJ","condition 2 >> condition 1",9658,610958,63
254,"t11_1_2","t11",1,2,"COM(S)","no","OBJ>PP",2,"below","PP>OBJ >> OBJ>PP","condition 1 >> condition 2",29464,369316,24
223,"t11_1_2","t11",1,2,"COM(S)","no","PP>OBJ",1,"below","OBJ>PP >> PP>OBJ","condition 2 >> condition 1",7530,194453,21
230,"t11_1_2","t11",1,2,"COM(S)","no","PP>OBJ",1,"below","OBJ>PP >> PP>OBJ","condition 2 >> condition 1",6326,147388,15
222,"t11_1_2","t11",1,2,"COM(S)","no","PP>OBJ",1,"above","PP>OBJ >> OBJ>PP","condition 1 >> condition 2",7554,170957,15
267,"t11_1_2","t11",1,2,"COM(S)","no","OBJ>PP",2,"above","OBJ>PP >> PP>OBJ","condition 2 >> condition 1",22191,184752,11
266,"t11_1_2","t11",1,2,"COM(S)","no","OBJ>PP",2,"below","PP>OBJ >> OBJ>PP","condition 1 >> condition 2",13208,77898,6
236,"t11_1_2","t11",1,2,"COM(S)","no","OBJ>PP",2,"below","PP>OBJ >> OBJ>PP","condition 1 >> condition 2",13375,302987,24
263,"t11_1_2","t11",1,2,"COM(S)","no","OBJ>PP",2,"below","PP>OBJ >> OBJ>PP","condition 1 >> condition 2",7375,436490,39
256,"t11_1_2","t11",1,2,"COM(S)","no","PP>OBJ",1,"below","OBJ>PP >> PP>OBJ","condition 2 >> condition 1",6438,652870,68
227,"t11_1_2","t11",1,2,"COM(S)","no","PP>OBJ",1,"below","OBJ>PP >> PP>OBJ","condition 2 >> condition 1",7755,599068,48
253,"t11_1_2","t11",1,2,"COM(S)","no","PP>OBJ",1,"below","OBJ>PP >> PP>OBJ","condition 2 >> condition 1",9495,376910,36
249,"t11_1_2","t11",1,2,"COM(S)","no","PP>OBJ",1,"below","OBJ>PP >> PP>OBJ","condition 2 >> condition 1",10622,435658,33
244,"t11_1_2","t11",1,2,"COM(S)","no","OBJ>PP",2,"below","PP>OBJ >> OBJ>PP","condition 1 >> condition 2",9639,459688,50
232,"t11_1_2","t11",1,2,"COM(S)","no","OBJ>PP",2,"above","OBJ>PP >> PP>OBJ","condition 2 >> condition 1",4250,368047,57
242,"t11_1_2","t11",1,2,"COM(S)","no","PP>OBJ",1,"above","PP>OBJ >> OBJ>PP","condition 1 >> condition 2",6553,656307,70
237,"t11_1_2","t11",1,2,"COM(S)","no","OBJ>PP",2,"below","PP>OBJ >> OBJ>PP","condition 1 >> condition 2",10802,378364,37
239,"t11_1_2","t11",1,2,"COM(S)","no","PP>OBJ",1,"below","OBJ>PP >> PP>OBJ","condition 2 >> condition 1",4565,508982,62
231,"t11_1_2","t11",1,2,"COM(S)","no","PP>OBJ",1,"below","OBJ>PP >> PP>OBJ","condition 2 >> condition 1",5218,490982,62
234,"t11_1_2","t11",1,2,"COM(S)","no","PP>OBJ",1,"above","PP>OBJ >> OBJ>PP","condition 1 >> condition 2",12088,643771,56
246,"t11_1_2","t11",1,2,"COM(S)","no","OBJ>PP",2,"above","OBJ>PP >> PP>OBJ","condition 2 >> condition 1",9920,108346,11
221,"t11_1_2","t11",1,2,"COM(S)","no","PP>OBJ",1,"below","OBJ>PP >> PP>OBJ","condition 2 >> condition 1",9435,729572,67
257,"t11_1_2","t11",1,2,"COM(S)","no","PP>OBJ",1,"below","OBJ>PP >> PP>OBJ","condition 2 >> condition 1",9845,505165,51
243,"t11_1_2","t11",1,2,"COM(S)","no","OBJ>PP",2,"above","OBJ>PP >> PP>OBJ","condition 2 >> condition 1",15711,333889,30
224,"t11_1_2","t11",1,2,"COM(S)","no","OBJ>PP",2,"above","OBJ>PP >> PP>OBJ","condition 2 >> condition 1",6396,264552,36
270,"t11_1_2","t11",1,2,"COM(S)","no","OBJ>PP",2,"above","OBJ>PP >> PP>OBJ","condition 2 >> condition 1",9417,592679,49
224,"t12_1_2","t12",1,2,"COM(S)","no","OBJ>PP",2,"above","OBJ>PP >> PP>OBJ","condition 2 >> condition 1",6268,328722,44
221,"t12_1_2","t12",1,2,"COM(S)","no","PP>OBJ",1,"above","PP>OBJ >> OBJ>PP","condition 1 >> condition 2",9976,492685,42
237,"t12_1_2","t12",1,2,"COM(S)","no","PP>OBJ",1,"below","OBJ>PP >> PP>OBJ","condition 2 >> condition 1",8313,429291,44
258,"t12_1_2","t12",1,2,"COM(S)","no","PP>OBJ",1,"below","OBJ>PP >> PP>OBJ","condition 2 >> condition 1",9445,575745,59
241,"t12_1_2","t12",1,2,"COM(S)","no","OBJ>PP",2,"below","PP>OBJ >> OBJ>PP","condition 1 >> condition 2",6828,194091,20
256,"t12_1_2","t12",1,2,"COM(S)","no","PP>OBJ",1,"above","PP>OBJ >> OBJ>PP","condition 1 >> condition 2",7114,382891,38
234,"t12_1_2","t12",1,2,"COM(S)","no","OBJ>PP",2,"above","OBJ>PP >> PP>OBJ","condition 2 >> condition 1",20541,378901,31
236,"t12_1_2","t12",1,2,"COM(S)","no","PP>OBJ",1,"above","PP>OBJ >> OBJ>PP","condition 1 >> condition 2",20078,281182,22
267,"t12_1_2","t12",1,2,"COM(S)","no","PP>OBJ",1,"above","PP>OBJ >> OBJ>PP","condition 1 >> condition 2",9613,585716,44
220,"t12_1_2","t12",1,2,"COM(S)","no","PP>OBJ",1,"above","PP>OBJ >> OBJ>PP","condition 1 >> condition 2",5003,251604,29
242,"t12_1_2","t12",1,2,"COM(S)","no","PP>OBJ",1,"above","PP>OBJ >> OBJ>PP","condition 1 >> condition 2",12564,157197,12
263,"t12_1_2","t12",1,2,"COM(S)","no","OBJ>PP",2,"below","PP>OBJ >> OBJ>PP","condition 1 >> condition 2",11489,372198,26
222,"t12_1_2","t12",1,2,"COM(S)","no","OBJ>PP",2,"above","OBJ>PP >> PP>OBJ","condition 2 >> condition 1",10630,200366,19
227,"t12_1_2","t12",1,2,"COM(S)","no","PP>OBJ",1,"above","PP>OBJ >> OBJ>PP","condition 1 >> condition 2",10826,519502,40
231,"t12_1_2","t12",1,2,"COM(S)","no","PP>OBJ",1,"below","OBJ>PP >> PP>OBJ","condition 2 >> condition 1",8038,476972,59
229,"t12_1_2","t12",1,2,"COM(S)","no","PP>OBJ",1,"below","OBJ>PP >> PP>OBJ","condition 2 >> condition 1",9003,536674,70
232,"t12_1_2","t12",1,2,"COM(S)","no","OBJ>PP",2,"above","OBJ>PP >> PP>OBJ","condition 2 >> condition 1",4397,283404,42
230,"t12_1_2","t12",1,2,"COM(S)","no","PP>OBJ",1,"below","OBJ>PP >> PP>OBJ","condition 2 >> condition 1",7000,519903,62
228,"t12_1_2","t12",1,2,"COM(S)","no","OBJ>PP",2,"below","PP>OBJ >> OBJ>PP","condition 1 >> condition 2",9555,552014,56
254,"t12_1_2","t12",1,2,"COM(S)","no","PP>OBJ",1,"above","PP>OBJ >> OBJ>PP","condition 1 >> condition 2",14782,500960,34
266,"t12_1_2","t12",1,2,"COM(S)","no","OBJ>PP",2,"below","PP>OBJ >> OBJ>PP","condition 1 >> condition 2",8726,373493,30
225,"t12_1_2","t12",1,2,"COM(S)","no","PP>OBJ",1,"below","OBJ>PP >> PP>OBJ","condition 2 >> condition 1",7618,201258,25
271,"t12_1_2","t12",1,2,"COM(S)","no","OBJ>PP",2,"below","PP>OBJ >> OBJ>PP","condition 1 >> condition 2",7906,423334,53
249,"t12_1_2","t12",1,2,"COM(S)","no","OBJ>PP",2,"above","OBJ>PP >> PP>OBJ","condition 2 >> condition 1",8847,799097,69
257,"t12_1_2","t12",1,2,"COM(S)","no","PP>OBJ",1,"above","PP>OBJ >> OBJ>PP","condition 1 >> condition 2",14191,96413,8
244,"t12_1_2","t12",1,2,"COM(S)","no","OBJ>PP",2,"below","PP>OBJ >> OBJ>PP","condition 1 >> condition 2",7960,222177,22
223,"t12_1_2","t12",1,2,"COM(S)","no","PP>OBJ",1,"above","PP>OBJ >> OBJ>PP","condition 1 >> condition 2",11616,79177,7
270,"t12_1_2","t12",1,2,"COM(S)","no","PP>OBJ",1,"below","OBJ>PP >> PP>OBJ","condition 2 >> condition 1",13318,120022,10
239,"t12_1_2","t12",1,2,"COM(S)","no","OBJ>PP",2,"above","OBJ>PP >> PP>OBJ","condition 2 >> condition 1",8978,255951,26
253,"t12_1_2","t12",1,2,"COM(S)","no","PP>OBJ",1,"below","OBJ>PP >> PP>OBJ","condition 2 >> condition 1",7598,538388,53
243,"t12_1_2","t12",1,2,"COM(S)","no","OBJ>PP",2,"above","OBJ>PP >> PP>OBJ","condition 2 >> condition 1",13510,270533,25
238,"t12_1_2","t12",1,2,"COM(S)","no","OBJ>PP",2,"above","OBJ>PP >> PP>OBJ","condition 2 >> condition 1",8319,486715,64
246,"t12_1_2","t12",1,2,"COM(S)","no","PP>OBJ",1,"below","OBJ>PP >> PP>OBJ","condition 2 >> condition 1",10449,82150,8
246,"t13_1_2","t13",1,2,"INSTR","yes","OBJ>PP",2,"above","OBJ>PP >> PP>OBJ","condition 2 >> condition 1",14180,323847,32
270,"t13_1_2","t13",1,2,"INSTR","yes","OBJ>PP",2,"above","OBJ>PP >> PP>OBJ","condition 2 >> condition 1",8794,665810,56
224,"t13_1_2","t13",1,2,"INSTR","yes","OBJ>PP",2,"below","PP>OBJ >> OBJ>PP","condition 1 >> condition 2",6895,183876,23
253,"t13_1_2","t13",1,2,"INSTR","yes","OBJ>PP",2,"above","OBJ>PP >> PP>OBJ","condition 2 >> condition 1",10542,421942,41
231,"t13_1_2","t13",1,2,"INSTR","yes","PP>OBJ",1,"below","OBJ>PP >> PP>OBJ","condition 2 >> condition 1",12371,113104,13
257,"t13_1_2","t13",1,2,"INSTR","yes","OBJ>PP",2,"below","PP>OBJ >> OBJ>PP","condition 1 >> condition 2",9158,127895,11
267,"t13_1_2","t13",1,2,"INSTR","yes","OBJ>PP",2,"below","PP>OBJ >> OBJ>PP","condition 1 >> condition 2",8396,355307,27
243,"t13_1_2","t13",1,2,"INSTR","yes","OBJ>PP",2,"below","PP>OBJ >> OBJ>PP","condition 1 >> condition 2",11825,76341,7
223,"t13_1_2","t13",1,2,"INSTR","yes","OBJ>PP",2,"above","OBJ>PP >> PP>OBJ","condition 2 >> condition 1",7458,469286,48
271,"t13_1_2","t13",1,2,"INSTR","yes","OBJ>PP",2,"above","OBJ>PP >> PP>OBJ","condition 2 >> condition 1",6281,220575,26
263,"t13_1_2","t13",1,2,"INSTR","yes","OBJ>PP",2,"above","OBJ>PP >> PP>OBJ","condition 2 >> condition 1",6675,332032,19
237,"t13_1_2","t13",1,2,"INSTR","yes","OBJ>PP",2,"above","OBJ>PP >> PP>OBJ","condition 2 >> condition 1",13795,211313,23
249,"t13_1_2","t13",1,2,"INSTR","yes","OBJ>PP",2,"above","OBJ>PP >> PP>OBJ","condition 2 >> condition 1",10415,414682,31
266,"t13_1_2","t13",1,2,"INSTR","yes","PP>OBJ",1,"above","PP>OBJ >> OBJ>PP","condition 1 >> condition 2",10534,225306,17
232,"t13_1_2","t13",1,2,"INSTR","yes","OBJ>PP",2,"above","OBJ>PP >> PP>OBJ","condition 2 >> condition 1",4385,99609,13
234,"t13_1_2","t13",1,2,"INSTR","yes","OBJ>PP",2,"above","OBJ>PP >> PP>OBJ","condition 2 >> condition 1",11211,399933,33
227,"t13_1_2","t13",1,2,"INSTR","yes","OBJ>PP",2,"below","PP>OBJ >> OBJ>PP","condition 1 >> condition 2",10562,702721,60
254,"t13_1_2","t13",1,2,"INSTR","yes","OBJ>PP",2,"above","OBJ>PP >> PP>OBJ","condition 2 >> condition 1",13588,902132,66
222,"t13_1_2","t13",1,2,"INSTR","yes","PP>OBJ",1,"above","PP>OBJ >> OBJ>PP","condition 1 >> condition 2",12819,540483,59
228,"t13_1_2","t13",1,2,"INSTR","yes","PP>OBJ",1,"above","PP>OBJ >> OBJ>PP","condition 1 >> condition 2",10639,461046,46
242,"t13_1_2","t13",1,2,"INSTR","yes","PP>OBJ",1,"below","OBJ>PP >> PP>OBJ","condition 2 >> condition 1",7516,291640,25
256,"t13_1_2","t13",1,2,"INSTR","yes","OBJ>PP",2,"below","PP>OBJ >> OBJ>PP","condition 1 >> condition 2",5943,524876,52
241,"t13_1_2","t13",1,2,"INSTR","yes","OBJ>PP",2,"below","PP>OBJ >> OBJ>PP","condition 1 >> condition 2",5984,302678,34
238,"t13_1_2","t13",1,2,"INSTR","yes","PP>OBJ",1,"above","PP>OBJ >> OBJ>PP","condition 1 >> condition 2",7823,409468,53
236,"t13_1_2","t13",1,2,"INSTR","yes","OBJ>PP",2,"below","PP>OBJ >> OBJ>PP","condition 1 >> condition 2",10842,371459,30
230,"t13_1_2","t13",1,2,"INSTR","yes","OBJ>PP",2,"below","PP>OBJ >> OBJ>PP","condition 1 >> condition 2",4850,539566,65
220,"t13_1_2","t13",1,2,"INSTR","yes","PP>OBJ",1,"above","PP>OBJ >> OBJ>PP","condition 1 >> condition 2",8972,489422,55
229,"t13_1_2","t13",1,2,"INSTR","yes","OBJ>PP",2,"above","OBJ>PP >> PP>OBJ","condition 2 >> condition 1",3907,175091,22
244,"t13_1_2","t13",1,2,"INSTR","yes","OBJ>PP",2,"above","OBJ>PP >> PP>OBJ","condition 2 >> condition 1",14552,59367,6
221,"t13_1_2","t13",1,2,"INSTR","yes","OBJ>PP",2,"above","OBJ>PP >> PP>OBJ","condition 2 >> condition 1",15720,192250,13
258,"t13_1_2","t13",1,2,"INSTR","yes","OBJ>PP",2,"above","OBJ>PP >> PP>OBJ","condition 2 >> condition 1",7290,426321,42
239,"t13_1_2","t13",1,2,"INSTR","yes","OBJ>PP",2,"above","OBJ>PP >> PP>OBJ","condition 2 >> condition 1",5200,433203,51
225,"t13_1_2","t13",1,2,"INSTR","yes","OBJ>PP",2,"below","PP>OBJ >> OBJ>PP","condition 1 >> condition 2",6457,265561,31
241,"t14_1_2","t14",1,2,"INSTR","yes","OBJ>PP",2,"above","OBJ>PP >> PP>OBJ","condition 2 >> condition 1",7534,283332,31
239,"t14_1_2","t14",1,2,"INSTR","yes","OBJ>PP",2,"below","PP>OBJ >> OBJ>PP","condition 1 >> condition 2",6401,536774,67
249,"t14_1_2","t14",1,2,"INSTR","yes","OBJ>PP",2,"below","PP>OBJ >> OBJ>PP","condition 1 >> condition 2",11382,767466,65
243,"t14_1_2","t14",1,2,"INSTR","yes","OBJ>PP",2,"above","OBJ>PP >> PP>OBJ","condition 2 >> condition 1",9384,189340,18
244,"t14_1_2","t14",1,2,"INSTR","yes","OBJ>PP",2,"above","OBJ>PP >> PP>OBJ","condition 2 >> condition 1",7239,307932,30
229,"t14_1_2","t14",1,2,"INSTR","yes","PP>OBJ",1,"below","OBJ>PP >> PP>OBJ","condition 2 >> condition 1",6576,421519,55
257,"t14_1_2","t14",1,2,"INSTR","yes","OBJ>PP",2,"below","PP>OBJ >> OBJ>PP","condition 1 >> condition 2",14421,589716,60
246,"t14_1_2","t14",1,2,"INSTR","yes","OBJ>PP",2,"below","PP>OBJ >> OBJ>PP","condition 1 >> condition 2",9954,545759,60
253,"t14_1_2","t14",1,2,"INSTR","yes","OBJ>PP",2,"below","PP>OBJ >> OBJ>PP","condition 1 >> condition 2",6084,506604,49
242,"t14_1_2","t14",1,2,"INSTR","yes","OBJ>PP",2,"above","OBJ>PP >> PP>OBJ","condition 2 >> condition 1",6914,505307,51
237,"t14_1_2","t14",1,2,"INSTR","yes","PP>OBJ",1,"below","OBJ>PP >> PP>OBJ","condition 2 >> condition 1",7134,353506,35
231,"t14_1_2","t14",1,2,"INSTR","yes","PP>OBJ",1,"below","OBJ>PP >> PP>OBJ","condition 2 >> condition 1",8690,242150,29
263,"t14_1_2","t14",1,2,"INSTR","yes","OBJ>PP",2,"below","PP>OBJ >> OBJ>PP","condition 1 >> condition 2",11846,453761,41
221,"t14_1_2","t14",1,2,"INSTR","yes","OBJ>PP",2,"below","PP>OBJ >> OBJ>PP","condition 1 >> condition 2",22248,152049,10
266,"t14_1_2","t14",1,2,"INSTR","yes","OBJ>PP",2,"above","OBJ>PP >> PP>OBJ","condition 2 >> condition 1",8554,516203,45
223,"t14_1_2","t14",1,2,"INSTR","yes","OBJ>PP",2,"above","OBJ>PP >> PP>OBJ","condition 2 >> condition 1",20806,431600,43
225,"t14_1_2","t14",1,2,"INSTR","yes","OBJ>PP",2,"above","OBJ>PP >> PP>OBJ","condition 2 >> condition 1",7836,423572,51
256,"t14_1_2","t14",1,2,"INSTR","yes","OBJ>PP",2,"below","PP>OBJ >> OBJ>PP","condition 1 >> condition 2",6817,669073,70
267,"t14_1_2","t14",1,2,"INSTR","yes","OBJ>PP",2,"above","OBJ>PP >> PP>OBJ","condition 2 >> condition 1",6569,711895,53
222,"t14_1_2","t14",1,2,"INSTR","yes","OBJ>PP",2,"above","OBJ>PP >> PP>OBJ","condition 2 >> condition 1",11257,244540,24
227,"t14_1_2","t14",1,2,"INSTR","yes","OBJ>PP",2,"above","OBJ>PP >> PP>OBJ","condition 2 >> condition 1",8524,623172,51
230,"t14_1_2","t14",1,2,"INSTR","yes","PP>OBJ",1,"below","OBJ>PP >> PP>OBJ","condition 2 >> condition 1",9175,562844,68
228,"t14_1_2","t14",1,2,"INSTR","yes","PP>OBJ",1,"below","OBJ>PP >> PP>OBJ","condition 2 >> condition 1",14133,77169,7
258,"t14_1_2","t14",1,2,"INSTR","yes","PP>OBJ",1,"above","PP>OBJ >> OBJ>PP","condition 1 >> condition 2",16839,350023,35
234,"t14_1_2","t14",1,2,"INSTR","yes","OBJ>PP",2,"above","OBJ>PP >> PP>OBJ","condition 2 >> condition 1",10125,626202,54
224,"t14_1_2","t14",1,2,"INSTR","yes","OBJ>PP",2,"below","PP>OBJ >> OBJ>PP","condition 1 >> condition 2",4387,460954,64
271,"t14_1_2","t14",1,2,"INSTR","yes","OBJ>PP",2,"below","PP>OBJ >> OBJ>PP","condition 1 >> condition 2",5947,236682,29
238,"t14_1_2","t14",1,2,"INSTR","yes","PP>OBJ",1,"below","OBJ>PP >> PP>OBJ","condition 2 >> condition 1",7880,393116,51
220,"t14_1_2","t14",1,2,"INSTR","yes","OBJ>PP",2,"above","OBJ>PP >> PP>OBJ","condition 2 >> condition 1",7070,550087,63
270,"t14_1_2","t14",1,2,"INSTR","yes","OBJ>PP",2,"below","PP>OBJ >> OBJ>PP","condition 1 >> condition 2",12118,358690,29
236,"t14_1_2","t14",1,2,"INSTR","yes","OBJ>PP",2,"below","PP>OBJ >> OBJ>PP","condition 1 >> condition 2",6653,751490,70
232,"t14_1_2","t14",1,2,"INSTR","yes","OBJ>PP",2,"above","OBJ>PP >> PP>OBJ","condition 2 >> condition 1",3832,120437,18
254,"t14_1_2","t14",1,2,"INSTR","yes","PP>OBJ",1,"above","PP>OBJ >> OBJ>PP","condition 1 >> condition 2",29091,284899,18
230,"t15_1_2","t15",1,2,"INSTR","yes","OBJ>PP",2,"below","PP>OBJ >> OBJ>PP","condition 1 >> condition 2",10130,249248,27
231,"t15_1_2","t15",1,2,"INSTR","yes","PP>OBJ",1,"below","OBJ>PP >> PP>OBJ","condition 2 >> condition 1",7246,254043,31
258,"t15_1_2","t15",1,2,"INSTR","yes","OBJ>PP",2,"above","OBJ>PP >> PP>OBJ","condition 2 >> condition 1",8005,524635,54
229,"t15_1_2","t15",1,2,"INSTR","yes","OBJ>PP",2,"above","OBJ>PP >> PP>OBJ","condition 2 >> condition 1",9936,406935,53
227,"t15_1_2","t15",1,2,"INSTR","yes","PP>OBJ",1,"below","OBJ>PP >> PP>OBJ","condition 2 >> condition 1",15826,502188,38
238,"t15_1_2","t15",1,2,"INSTR","yes","OBJ>PP",2,"above","OBJ>PP >> PP>OBJ","condition 2 >> condition 1",7110,243411,32
237,"t15_1_2","t15",1,2,"INSTR","yes","PP>OBJ",1,"below","OBJ>PP >> PP>OBJ","condition 2 >> condition 1",7972,103919,13
242,"t15_1_2","t15",1,2,"INSTR","yes","PP>OBJ",1,"below","OBJ>PP >> PP>OBJ","condition 2 >> condition 1",8132,194342,16
243,"t15_1_2","t15",1,2,"INSTR","yes","OBJ>PP",2,"below","PP>OBJ >> OBJ>PP","condition 1 >> condition 2",9390,95170,9
220,"t15_1_2","t15",1,2,"INSTR","yes","OBJ>PP",2,"below","PP>OBJ >> OBJ>PP","condition 1 >> condition 2",5143,414903,45
225,"t15_1_2","t15",1,2,"INSTR","yes","OBJ>PP",2,"above","OBJ>PP >> PP>OBJ","condition 2 >> condition 1",10755,357418,42
224,"t15_1_2","t15",1,2,"INSTR","yes","OBJ>PP",2,"above","OBJ>PP >> PP>OBJ","condition 2 >> condition 1",6187,342680,46
222,"t15_1_2","t15",1,2,"INSTR","yes","OBJ>PP",2,"below","PP>OBJ >> OBJ>PP","condition 1 >> condition 2",9177,314167,32
223,"t15_1_2","t15",1,2,"INSTR","yes","PP>OBJ",1,"above","PP>OBJ >> OBJ>PP","condition 1 >> condition 2",11060,533796,55
257,"t15_1_2","t15",1,2,"INSTR","yes","PP>OBJ",1,"above","PP>OBJ >> OBJ>PP","condition 1 >> condition 2",9539,539065,55
244,"t15_1_2","t15",1,2,"INSTR","yes","OBJ>PP",2,"below","PP>OBJ >> OBJ>PP","condition 1 >> condition 2",9890,594429,67
228,"t15_1_2","t15",1,2,"INSTR","yes","OBJ>PP",2,"below","PP>OBJ >> OBJ>PP","condition 1 >> condition 2",8366,567784,58
263,"t15_1_2","t15",1,2,"INSTR","yes","OBJ>PP",2,"above","OBJ>PP >> PP>OBJ","condition 2 >> condition 1",5455,576818,62
221,"t15_1_2","t15",1,2,"INSTR","yes","OBJ>PP",2,"below","PP>OBJ >> OBJ>PP","condition 1 >> condition 2",11679,256417,19
234,"t15_1_2","t15",1,2,"INSTR","yes","OBJ>PP",2,"above","OBJ>PP >> PP>OBJ","condition 2 >> condition 1",9110,531457,46
267,"t15_1_2","t15",1,2,"INSTR","yes","PP>OBJ",1,"above","PP>OBJ >> OBJ>PP","condition 1 >> condition 2",15533,487306,38
256,"t15_1_2","t15",1,2,"INSTR","yes","OBJ>PP",2,"below","PP>OBJ >> OBJ>PP","condition 1 >> condition 2",6036,178247,18
241,"t15_1_2","t15",1,2,"INSTR","yes","OBJ>PP",2,"above","OBJ>PP >> PP>OBJ","condition 2 >> condition 1",6097,433933,52
236,"t15_1_2","t15",1,2,"INSTR","yes","OBJ>PP",2,"above","OBJ>PP >> PP>OBJ","condition 2 >> condition 1",10965,444570,38
254,"t15_1_2","t15",1,2,"INSTR","yes","OBJ>PP",2,"below","PP>OBJ >> OBJ>PP","condition 1 >> condition 2",10607,573812,41
253,"t15_1_2","t15",1,2,"INSTR","yes","OBJ>PP",2,"below","PP>OBJ >> OBJ>PP","condition 1 >> condition 2",5719,650845,64
246,"t15_1_2","t15",1,2,"INSTR","yes","OBJ>PP",2,"below","PP>OBJ >> OBJ>PP","condition 1 >> condition 2",7375,433977,45
239,"t15_1_2","t15",1,2,"INSTR","yes","PP>OBJ",1,"below","OBJ>PP >> PP>OBJ","condition 2 >> condition 1",4890,451104,54
232,"t15_1_2","t15",1,2,"INSTR","yes","PP>OBJ",1,"above","PP>OBJ >> OBJ>PP","condition 1 >> condition 2",6283,317480,47
270,"t15_1_2","t15",1,2,"INSTR","yes","OBJ>PP",2,"above","OBJ>PP >> PP>OBJ","condition 2 >> condition 1",12048,612939,51
271,"t15_1_2","t15",1,2,"INSTR","yes","OBJ>PP",2,"below","PP>OBJ >> OBJ>PP","condition 1 >> condition 2",6318,307083,39
249,"t15_1_2","t15",1,2,"INSTR","yes","OBJ>PP",2,"below","PP>OBJ >> OBJ>PP","condition 1 >> condition 2",11446,785953,67
266,"t15_1_2","t15",1,2,"INSTR","yes","OBJ>PP",2,"below","PP>OBJ >> OBJ>PP","condition 1 >> condition 2",6312,633287,58
231,"t16_1_2","t16",1,2,"INSTR","yes","PP>OBJ",1,"above","PP>OBJ >> OBJ>PP","condition 1 >> condition 2",8226,291531,36
232,"t16_1_2","t16",1,2,"INSTR","yes","PP>OBJ",1,"above","PP>OBJ >> OBJ>PP","condition 1 >> condition 2",39707,464867,69
266,"t16_1_2","t16",1,2,"INSTR","yes","PP>OBJ",1,"above","PP>OBJ >> OBJ>PP","condition 1 >> condition 2",16092,166007,13
230,"t16_1_2","t16",1,2,"INSTR","yes","PP>OBJ",1,"below","OBJ>PP >> PP>OBJ","condition 2 >> condition 1",8227,229106,25
236,"t16_1_2","t16",1,2,"INSTR","yes","OBJ>PP",2,"above","OBJ>PP >> PP>OBJ","condition 2 >> condition 1",6454,624897,57
254,"t16_1_2","t16",1,2,"INSTR","yes","OBJ>PP",2,"below","PP>OBJ >> OBJ>PP","condition 1 >> condition 2",6255,718606,52
270,"t16_1_2","t16",1,2,"INSTR","yes","OBJ>PP",2,"above","OBJ>PP >> PP>OBJ","condition 2 >> condition 1",14362,244929,21
253,"t16_1_2","t16",1,2,"INSTR","yes","PP>OBJ",1,"above","PP>OBJ >> OBJ>PP","condition 1 >> condition 2",6622,450045,43
256,"t16_1_2","t16",1,2,"INSTR","yes","OBJ>PP",2,"above","OBJ>PP >> PP>OBJ","condition 2 >> condition 1",7648,553234,56
228,"t16_1_2","t16",1,2,"INSTR","yes","OBJ>PP",2,"above","OBJ>PP >> PP>OBJ","condition 2 >> condition 1",8884,360381,37
271,"t16_1_2","t16",1,2,"INSTR","yes","OBJ>PP",2,"below","PP>OBJ >> OBJ>PP","condition 1 >> condition 2",5518,182894,22
220,"t16_1_2","t16",1,2,"INSTR","yes","PP>OBJ",1,"above","PP>OBJ >> OBJ>PP","condition 1 >> condition 2",15062,334480,36
244,"t16_1_2","t16",1,2,"INSTR","yes","PP>OBJ",1,"above","PP>OBJ >> OBJ>PP","condition 1 >> condition 2",9333,416999,44
263,"t16_1_2","t16",1,2,"INSTR","yes","PP>OBJ",1,"above","PP>OBJ >> OBJ>PP","condition 1 >> condition 2",5713,606501,68
242,"t16_1_2","t16",1,2,"INSTR","yes","OBJ>PP",2,"above","OBJ>PP >> PP>OBJ","condition 2 >> condition 1",11532,566289,58
238,"t16_1_2","t16",1,2,"INSTR","yes","PP>OBJ",1,"below","OBJ>PP >> PP>OBJ","condition 2 >> condition 1",9272,310044,38
246,"t16_1_2","t16",1,2,"INSTR","yes","OBJ>PP",2,"below","PP>OBJ >> OBJ>PP","condition 1 >> condition 2",6668,486322,53
223,"t16_1_2","t16",1,2,"INSTR","yes","OBJ>PP",2,"below","PP>OBJ >> OBJ>PP","condition 1 >> condition 2",7095,599354,63
234,"t16_1_2","t16",1,2,"INSTR","yes","PP>OBJ",1,"above","PP>OBJ >> OBJ>PP","condition 1 >> condition 2",23167,568550,49
241,"t16_1_2","t16",1,2,"INSTR","yes","OBJ>PP",2,"above","OBJ>PP >> PP>OBJ","condition 2 >> condition 1",14061,158467,15
258,"t16_1_2","t16",1,2,"INSTR","yes","OBJ>PP",2,"below","PP>OBJ >> OBJ>PP","condition 1 >> condition 2",6242,451796,45
225,"t16_1_2","t16",1,2,"INSTR","yes","OBJ>PP",2,"above","OBJ>PP >> PP>OBJ","condition 2 >> condition 1",6384,563216,68
224,"t16_1_2","t16",1,2,"INSTR","yes","OBJ>PP",2,"below","PP>OBJ >> OBJ>PP","condition 1 >> condition 2",5662,428770,58
229,"t16_1_2","t16",1,2,"INSTR","yes","OBJ>PP",2,"above","OBJ>PP >> PP>OBJ","condition 2 >> condition 1",9652,196794,25
237,"t16_1_2","t16",1,2,"INSTR","yes","PP>OBJ",1,"above","PP>OBJ >> OBJ>PP","condition 1 >> condition 2",4998,518566,54
243,"t16_1_2","t16",1,2,"INSTR","yes","OBJ>PP",2,"below","PP>OBJ >> OBJ>PP","condition 1 >> condition 2",12202,686049,64
257,"t16_1_2","t16",1,2,"INSTR","yes","PP>OBJ",1,"below","OBJ>PP >> PP>OBJ","condition 2 >> condition 1",8951,449851,44
249,"t16_1_2","t16",1,2,"INSTR","yes","PP>OBJ",1,"above","PP>OBJ >> OBJ>PP","condition 1 >> condition 2",13335,462122,36
227,"t16_1_2","t16",1,2,"INSTR","yes","OBJ>PP",2,"below","PP>OBJ >> OBJ>PP","condition 1 >> condition 2",9104,647400,54
222,"t16_1_2","t16",1,2,"INSTR","yes","OBJ>PP",2,"above","OBJ>PP >> PP>OBJ","condition 2 >> condition 1",7797,468147,51
267,"t16_1_2","t16",1,2,"INSTR","yes","OBJ>PP",2,"below","PP>OBJ >> OBJ>PP","condition 1 >> condition 2",12257,238676,16
239,"t16_1_2","t16",1,2,"INSTR","yes","PP>OBJ",1,"below","OBJ>PP >> PP>OBJ","condition 2 >> condition 1",25428,101328,9
221,"t16_1_2","t16",1,2,"INSTR","yes","OBJ>PP",2,"below","PP>OBJ >> OBJ>PP","condition 1 >> condition 2",15403,217375,15
263,"t17_1_2","t17",1,2,"INSTR","yes","PP>OBJ",1,"above","PP>OBJ >> OBJ>PP","condition 1 >> condition 2",7739,321989,17
227,"t17_1_2","t17",1,2,"INSTR","yes","OBJ>PP",2,"above","OBJ>PP >> PP>OBJ","condition 2 >> condition 1",31845,479215,36
221,"t17_1_2","t17",1,2,"INSTR","yes","OBJ>PP",2,"above","OBJ>PP >> PP>OBJ","condition 2 >> condition 1",7732,421926,34
228,"t17_1_2","t17",1,2,"INSTR","yes","PP>OBJ",1,"below","OBJ>PP >> PP>OBJ","condition 2 >> condition 1",9047,595209,61
267,"t17_1_2","t17",1,2,"INSTR","yes","OBJ>PP",2,"above","OBJ>PP >> PP>OBJ","condition 2 >> condition 1",8234,314685,23
232,"t17_1_2","t17",1,2,"INSTR","yes","OBJ>PP",2,"above","OBJ>PP >> PP>OBJ","condition 2 >> condition 1",3570,264296,38
243,"t17_1_2","t17",1,2,"INSTR","yes","OBJ>PP",2,"above","OBJ>PP >> PP>OBJ","condition 2 >> condition 1",15524,386573,36
236,"t17_1_2","t17",1,2,"INSTR","yes","OBJ>PP",2,"below","PP>OBJ >> OBJ>PP","condition 1 >> condition 2",9584,352482,28
224,"t17_1_2","t17",1,2,"INSTR","yes","OBJ>PP",2,"above","OBJ>PP >> PP>OBJ","condition 2 >> condition 1",7076,489867,68
249,"t17_1_2","t17",1,2,"INSTR","yes","OBJ>PP",2,"above","OBJ>PP >> PP>OBJ","condition 2 >> condition 1",11847,211785,14
231,"t17_1_2","t17",1,2,"INSTR","yes","OBJ>PP",2,"below","PP>OBJ >> OBJ>PP","condition 1 >> condition 2",6096,542088,70
266,"t17_1_2","t17",1,2,"INSTR","yes","OBJ>PP",2,"above","OBJ>PP >> PP>OBJ","condition 2 >> condition 1",8150,387840,32
256,"t17_1_2","t17",1,2,"INSTR","yes","OBJ>PP",2,"below","PP>OBJ >> OBJ>PP","condition 1 >> condition 2",8837,113784,12
230,"t17_1_2","t17",1,2,"INSTR","yes","PP>OBJ",1,"below","OBJ>PP >> PP>OBJ","condition 2 >> condition 1",9502,413614,46
246,"t17_1_2","t17",1,2,"INSTR","yes","OBJ>PP",2,"above","OBJ>PP >> PP>OBJ","condition 2 >> condition 1",8401,246022,26
257,"t17_1_2","t17",1,2,"INSTR","yes","OBJ>PP",2,"below","PP>OBJ >> OBJ>PP","condition 1 >> condition 2",15919,71385,6
234,"t17_1_2","t17",1,2,"INSTR","yes","OBJ>PP",2,"below","PP>OBJ >> OBJ>PP","condition 1 >> condition 2",10729,80098,6
258,"t17_1_2","t17",1,2,"INSTR","yes","PP>OBJ",1,"above","PP>OBJ >> OBJ>PP","condition 1 >> condition 2",8248,82088,8
239,"t17_1_2","t17",1,2,"INSTR","yes","PP>OBJ",1,"below","OBJ>PP >> PP>OBJ","condition 2 >> condition 1",6785,304356,33
229,"t17_1_2","t17",1,2,"INSTR","yes","PP>OBJ",1,"below","OBJ>PP >> PP>OBJ","condition 2 >> condition 1",10998,54476,7
241,"t17_1_2","t17",1,2,"INSTR","yes","OBJ>PP",2,"below","PP>OBJ >> OBJ>PP","condition 1 >> condition 2",6599,134331,12
237,"t17_1_2","t17",1,2,"INSTR","yes","PP>OBJ",1,"below","OBJ>PP >> PP>OBJ","condition 2 >> condition 1",9572,136581,16
222,"t17_1_2","t17",1,2,"INSTR","yes","OBJ>PP",2,"above","OBJ>PP >> PP>OBJ","condition 2 >> condition 1",6635,616346,69
238,"t17_1_2","t17",1,2,"INSTR","yes","PP>OBJ",1,"above","PP>OBJ >> OBJ>PP","condition 1 >> condition 2",7581,173796,21
244,"t17_1_2","t17",1,2,"INSTR","yes","OBJ>PP",2,"above","OBJ>PP >> PP>OBJ","condition 2 >> condition 1",5464,497648,55
253,"t17_1_2","t17",1,2,"INSTR","yes","OBJ>PP",2,"below","PP>OBJ >> OBJ>PP","condition 1 >> condition 2",7069,583421,59
270,"t17_1_2","t17",1,2,"INSTR","yes","OBJ>PP",2,"above","OBJ>PP >> PP>OBJ","condition 2 >> condition 1",12147,439557,37
220,"t17_1_2","t17",1,2,"INSTR","yes","OBJ>PP",2,"below","PP>OBJ >> OBJ>PP","condition 1 >> condition 2",4007,498963,57
242,"t17_1_2","t17",1,2,"INSTR","yes","OBJ>PP",2,"below","PP>OBJ >> OBJ>PP","condition 1 >> condition 2",7798,235358,20
271,"t17_1_2","t17",1,2,"INSTR","yes","OBJ>PP",2,"below","PP>OBJ >> OBJ>PP","condition 1 >> condition 2",8033,272045,34
225,"t17_1_2","t17",1,2,"INSTR","yes","OBJ>PP",2,"above","OBJ>PP >> PP>OBJ","condition 2 >> condition 1",8298,444309,53
223,"t17_1_2","t17",1,2,"INSTR","yes","PP>OBJ",1,"below","OBJ>PP >> PP>OBJ","condition 2 >> condition 1",8456,344084,36
254,"t17_1_2","t17",1,2,"INSTR","yes","OBJ>PP",2,"above","OBJ>PP >> PP>OBJ","condition 2 >> condition 1",8924,742162,54
221,"t18_1_2","t18",1,2,"INSTR","yes","OBJ>PP",2,"above","OBJ>PP >> PP>OBJ","condition 2 >> condition 1",10069,341709,27
220,"t18_1_2","t18",1,2,"INSTR","yes","OBJ>PP",2,"below","PP>OBJ >> OBJ>PP","condition 1 >> condition 2",4962,438004,48
257,"t18_1_2","t18",1,2,"INSTR","yes","OBJ>PP",2,"above","OBJ>PP >> PP>OBJ","condition 2 >> condition 1",11437,558081,57
241,"t18_1_2","t18",1,2,"INSTR","yes","OBJ>PP",2,"below","PP>OBJ >> OBJ>PP","condition 1 >> condition 2",4773,468290,58
258,"t18_1_2","t18",1,2,"INSTR","yes","OBJ>PP",2,"above","OBJ>PP >> PP>OBJ","condition 2 >> condition 1",7561,267815,28
244,"t18_1_2","t18",1,2,"INSTR","yes","OBJ>PP",2,"below","PP>OBJ >> OBJ>PP","condition 1 >> condition 2",4408,525938,59
229,"t18_1_2","t18",1,2,"INSTR","yes","OBJ>PP",2,"below","PP>OBJ >> OBJ>PP","condition 1 >> condition 2",6167,358248,46
225,"t18_1_2","t18",1,2,"INSTR","yes","OBJ>PP",2,"below","PP>OBJ >> OBJ>PP","condition 1 >> condition 2",15520,232390,27
237,"t18_1_2","t18",1,2,"INSTR","yes","OBJ>PP",2,"below","PP>OBJ >> OBJ>PP","condition 1 >> condition 2",11729,50322,6
230,"t18_1_2","t18",1,2,"INSTR","yes","PP>OBJ",1,"above","PP>OBJ >> OBJ>PP","condition 1 >> condition 2",7169,339758,38
267,"t18_1_2","t18",1,2,"INSTR","yes","OBJ>PP",2,"above","OBJ>PP >> PP>OBJ","condition 2 >> condition 1",5959,781336,62
232,"t18_1_2","t18",1,2,"INSTR","yes","PP>OBJ",1,"above","PP>OBJ >> OBJ>PP","condition 1 >> condition 2",4659,336006,51
242,"t18_1_2","t18",1,2,"INSTR","yes","OBJ>PP",2,"above","OBJ>PP >> PP>OBJ","condition 2 >> condition 1",6564,479089,47
254,"t18_1_2","t18",1,2,"INSTR","yes","OBJ>PP",2,"below","PP>OBJ >> OBJ>PP","condition 1 >> condition 2",47595,628662,43
253,"t18_1_2","t18",1,2,"INSTR","yes","OBJ>PP",2,"below","PP>OBJ >> OBJ>PP","condition 1 >> condition 2",8056,391357,38
238,"t18_1_2","t18",1,2,"INSTR","yes","OBJ>PP",2,"below","PP>OBJ >> OBJ>PP","condition 1 >> condition 2",6631,436163,57
246,"t18_1_2","t18",1,2,"INSTR","yes","OBJ>PP",2,"above","OBJ>PP >> PP>OBJ","condition 2 >> condition 1",6171,507048,56
271,"t18_1_2","t18",1,2,"INSTR","yes","OBJ>PP",2,"above","OBJ>PP >> PP>OBJ","condition 2 >> condition 1",6733,319204,41
227,"t18_1_2","t18",1,2,"INSTR","yes","OBJ>PP",2,"above","OBJ>PP >> PP>OBJ","condition 2 >> condition 1",9285,735956,65
231,"t18_1_2","t18",1,2,"INSTR","yes","OBJ>PP",2,"below","PP>OBJ >> OBJ>PP","condition 1 >> condition 2",7088,213439,26
224,"t18_1_2","t18",1,2,"INSTR","yes","OBJ>PP",2,"above","OBJ>PP >> PP>OBJ","condition 2 >> condition 1",8933,207870,26
228,"t18_1_2","t18",1,2,"INSTR","yes","OBJ>PP",2,"above","OBJ>PP >> PP>OBJ","condition 2 >> condition 1",10084,535365,54
236,"t18_1_2","t18",1,2,"INSTR","yes","OBJ>PP",2,"below","PP>OBJ >> OBJ>PP","condition 1 >> condition 2",6415,427190,36
243,"t18_1_2","t18",1,2,"INSTR","yes","OBJ>PP",2,"below","PP>OBJ >> OBJ>PP","condition 1 >> condition 2",9788,605897,58
270,"t18_1_2","t18",1,2,"INSTR","yes","OBJ>PP",2,"above","OBJ>PP >> PP>OBJ","condition 2 >> condition 1",10612,461528,39
249,"t18_1_2","t18",1,2,"INSTR","yes","OBJ>PP",2,"above","OBJ>PP >> PP>OBJ","condition 2 >> condition 1",8779,581217,45
223,"t18_1_2","t18",1,2,"INSTR","yes","OBJ>PP",2,"above","OBJ>PP >> PP>OBJ","condition 2 >> condition 1",6478,451836,46
256,"t18_1_2","t18",1,2,"INSTR","yes","OBJ>PP",2,"above","OBJ>PP >> PP>OBJ","condition 2 >> condition 1",4967,413418,43
266,"t18_1_2","t18",1,2,"INSTR","yes","OBJ>PP",2,"below","PP>OBJ >> OBJ>PP","condition 1 >> condition 2",7131,565453,51
239,"t18_1_2","t18",1,2,"INSTR","yes","OBJ>PP",2,"below","PP>OBJ >> OBJ>PP","condition 1 >> condition 2",5541,406740,47
234,"t18_1_2","t18",1,2,"INSTR","yes","OBJ>PP",2,"above","OBJ>PP >> PP>OBJ","condition 2 >> condition 1",11799,444697,38
222,"t18_1_2","t18",1,2,"INSTR","yes","PP>OBJ",1,"below","OBJ>PP >> PP>OBJ","condition 2 >> condition 1",8505,481896,53
263,"t18_1_2","t18",1,2,"INSTR","yes","OBJ>PP",2,"above","OBJ>PP >> PP>OBJ","condition 2 >> condition 1",4675,585441,64
234,"t19_1_2","t19",1,2,"INSTR","no","OBJ>PP",2,"above","OBJ>PP >> PP>OBJ","condition 2 >> condition 1",15478,693117,60
271,"t19_1_2","t19",1,2,"INSTR","no","PP>OBJ",1,"below","OBJ>PP >> PP>OBJ","condition 2 >> condition 1",8133,405044,50
258,"t19_1_2","t19",1,2,"INSTR","no","OBJ>PP",2,"above","OBJ>PP >> PP>OBJ","condition 2 >> condition 1",9696,163933,19
223,"t19_1_2","t19",1,2,"INSTR","no","PP>OBJ",1,"above","PP>OBJ >> OBJ>PP","condition 1 >> condition 2",6217,582746,61
270,"t19_1_2","t19",1,2,"INSTR","no","OBJ>PP",2,"above","OBJ>PP >> PP>OBJ","condition 2 >> condition 1",9865,688946,58
242,"t19_1_2","t19",1,2,"INSTR","no","PP>OBJ",1,"above","PP>OBJ >> OBJ>PP","condition 1 >> condition 2",21032,102987,7
228,"t19_1_2","t19",1,2,"INSTR","no","OBJ>PP",2,"below","PP>OBJ >> OBJ>PP","condition 1 >> condition 2",8136,226874,21
232,"t19_1_2","t19",1,2,"INSTR","no","PP>OBJ",1,"above","PP>OBJ >> OBJ>PP","condition 1 >> condition 2",3258,399319,63
253,"t19_1_2","t19",1,2,"INSTR","no","OBJ>PP",2,"below","PP>OBJ >> OBJ>PP","condition 1 >> condition 2",10119,105670,8
249,"t19_1_2","t19",1,2,"INSTR","no","OBJ>PP",2,"below","PP>OBJ >> OBJ>PP","condition 1 >> condition 2",8135,716809,59
230,"t19_1_2","t19",1,2,"INSTR","no","OBJ>PP",2,"below","PP>OBJ >> OBJ>PP","condition 1 >> condition 2",8503,437404,49
229,"t19_1_2","t19",1,2,"INSTR","no","PP>OBJ",1,"above","PP>OBJ >> OBJ>PP","condition 1 >> condition 2",8119,141410,18
225,"t19_1_2","t19",1,2,"INSTR","no","OBJ>PP",2,"above","OBJ>PP >> PP>OBJ","condition 2 >> condition 1",10242,494663,60
220,"t19_1_2","t19",1,2,"INSTR","no","OBJ>PP",2,"above","OBJ>PP >> PP>OBJ","condition 2 >> condition 1",11216,88744,9
227,"t19_1_2","t19",1,2,"INSTR","no","PP>OBJ",1,"above","PP>OBJ >> OBJ>PP","condition 1 >> condition 2",13268,367141,30
241,"t19_1_2","t19",1,2,"INSTR","no","PP>OBJ",1,"below","OBJ>PP >> PP>OBJ","condition 2 >> condition 1",4940,330409,37
236,"t19_1_2","t19",1,2,"INSTR","no","OBJ>PP",2,"above","OBJ>PP >> PP>OBJ","condition 2 >> condition 1",11231,498906,42
256,"t19_1_2","t19",1,2,"INSTR","no","OBJ>PP",2,"above","OBJ>PP >> PP>OBJ","condition 2 >> condition 1",7401,219541,22
221,"t19_1_2","t19",1,2,"INSTR","no","PP>OBJ",1,"below","OBJ>PP >> PP>OBJ","condition 2 >> condition 1",12709,630164,57
224,"t19_1_2","t19",1,2,"INSTR","no","OBJ>PP",2,"below","PP>OBJ >> OBJ>PP","condition 1 >> condition 2",4810,241718,32
243,"t19_1_2","t19",1,2,"INSTR","no","OBJ>PP",2,"below","PP>OBJ >> OBJ>PP","condition 1 >> condition 2",9648,489689,46
266,"t19_1_2","t19",1,2,"INSTR","no","OBJ>PP",2,"above","OBJ>PP >> PP>OBJ","condition 2 >> condition 1",12696,620240,56
263,"t19_1_2","t19",1,2,"INSTR","no","OBJ>PP",2,"above","OBJ>PP >> PP>OBJ","condition 2 >> condition 1",4694,405685,33
257,"t19_1_2","t19",1,2,"INSTR","no","PP>OBJ",1,"below","OBJ>PP >> PP>OBJ","condition 2 >> condition 1",7723,434192,42
254,"t19_1_2","t19",1,2,"INSTR","no","PP>OBJ",1,"above","PP>OBJ >> OBJ>PP","condition 1 >> condition 2",7165,249861,16
246,"t19_1_2","t19",1,2,"INSTR","no","PP>OBJ",1,"above","PP>OBJ >> OBJ>PP","condition 1 >> condition 2",10700,528189,58
222,"t19_1_2","t19",1,2,"INSTR","no","OBJ>PP",2,"below","PP>OBJ >> OBJ>PP","condition 1 >> condition 2",13369,513597,56
237,"t19_1_2","t19",1,2,"INSTR","no","PP>OBJ",1,"above","PP>OBJ >> OBJ>PP","condition 1 >> condition 2",5984,157007,19
267,"t19_1_2","t19",1,2,"INSTR","no","OBJ>PP",2,"above","OBJ>PP >> PP>OBJ","condition 2 >> condition 1",16930,515836,40
239,"t19_1_2","t19",1,2,"INSTR","no","PP>OBJ",1,"below","OBJ>PP >> PP>OBJ","condition 2 >> condition 1",10345,233216,23
244,"t19_1_2","t19",1,2,"INSTR","no","OBJ>PP",2,"below","PP>OBJ >> OBJ>PP","condition 1 >> condition 2",6630,474489,52
231,"t19_1_2","t19",1,2,"INSTR","no","PP>OBJ",1,"below","OBJ>PP >> PP>OBJ","condition 2 >> condition 1",6959,528008,68
238,"t19_1_2","t19",1,2,"INSTR","no","OBJ>PP",2,"above","OBJ>PP >> PP>OBJ","condition 2 >> condition 1",6831,507947,67
238,"t20_1_2","t20",1,2,"INSTR","no","OBJ>PP",2,"above","OBJ>PP >> PP>OBJ","condition 2 >> condition 1",6270,339380,43
234,"t20_1_2","t20",1,2,"INSTR","no","OBJ>PP",2,"below","PP>OBJ >> OBJ>PP","condition 1 >> condition 2",6886,739165,64
270,"t20_1_2","t20",1,2,"INSTR","no","OBJ>PP",2,"above","OBJ>PP >> PP>OBJ","condition 2 >> condition 1",10923,326770,26
267,"t20_1_2","t20",1,2,"INSTR","no","OBJ>PP",2,"below","PP>OBJ >> OBJ>PP","condition 1 >> condition 2",16284,858480,69
221,"t20_1_2","t20",1,2,"INSTR","no","PP>OBJ",1,"below","OBJ>PP >> PP>OBJ","condition 2 >> condition 1",10057,305440,23
243,"t20_1_2","t20",1,2,"INSTR","no","OBJ>PP",2,"above","OBJ>PP >> PP>OBJ","condition 2 >> condition 1",22959,135203,12
223,"t20_1_2","t20",1,2,"INSTR","no","PP>OBJ",1,"above","PP>OBJ >> OBJ>PP","condition 1 >> condition 2",10652,556380,58
230,"t20_1_2","t20",1,2,"INSTR","no","PP>OBJ",1,"above","PP>OBJ >> OBJ>PP","condition 1 >> condition 2",7238,314960,35
254,"t20_1_2","t20",1,2,"INSTR","no","OBJ>PP",2,"below","PP>OBJ >> OBJ>PP","condition 1 >> condition 2",8995,528410,37
220,"t20_1_2","t20",1,2,"INSTR","no","OBJ>PP",2,"below","PP>OBJ >> OBJ>PP","condition 1 >> condition 2",6218,354455,38
232,"t20_1_2","t20",1,2,"INSTR","no","OBJ>PP",2,"above","OBJ>PP >> PP>OBJ","condition 2 >> condition 1",5451,145643,23
257,"t20_1_2","t20",1,2,"INSTR","no","PP>OBJ",1,"below","OBJ>PP >> PP>OBJ","condition 2 >> condition 1",12052,220302,19
222,"t20_1_2","t20",1,2,"INSTR","no","OBJ>PP",2,"above","OBJ>PP >> PP>OBJ","condition 2 >> condition 1",7681,406529,43
244,"t20_1_2","t20",1,2,"INSTR","no","OBJ>PP",2,"above","OBJ>PP >> PP>OBJ","condition 2 >> condition 1",7664,341542,34
246,"t20_1_2","t20",1,2,"INSTR","no","PP>OBJ",1,"below","OBJ>PP >> PP>OBJ","condition 2 >> condition 1",5973,344472,35
236,"t20_1_2","t20",1,2,"INSTR","no","OBJ>PP",2,"below","PP>OBJ >> OBJ>PP","condition 1 >> condition 2",7995,414546,34
237,"t20_1_2","t20",1,2,"INSTR","no","PP>OBJ",1,"above","PP>OBJ >> OBJ>PP","condition 1 >> condition 2",5519,335797,32
228,"t20_1_2","t20",1,2,"INSTR","no","OBJ>PP",2,"above","OBJ>PP >> PP>OBJ","condition 2 >> condition 1",14494,120246,11
263,"t20_1_2","t20",1,2,"INSTR","no","PP>OBJ",1,"above","PP>OBJ >> OBJ>PP","condition 1 >> condition 2",5340,467787,44
224,"t20_1_2","t20",1,2,"INSTR","no","OBJ>PP",2,"above","OBJ>PP >> PP>OBJ","condition 2 >> condition 1",7300,74954,8
229,"t20_1_2","t20",1,2,"INSTR","no","OBJ>PP",2,"below","PP>OBJ >> OBJ>PP","condition 1 >> condition 2",9072,348535,44
253,"t20_1_2","t20",1,2,"INSTR","no","PP>OBJ",1,"above","PP>OBJ >> OBJ>PP","condition 1 >> condition 2",6680,471822,46
225,"t20_1_2","t20",1,2,"INSTR","no","OBJ>PP",2,"below","PP>OBJ >> OBJ>PP","condition 1 >> condition 2",5697,175339,22
266,"t20_1_2","t20",1,2,"INSTR","no","OBJ>PP",2,"below","PP>OBJ >> OBJ>PP","condition 1 >> condition 2",11171,739634,70
271,"t20_1_2","t20",1,2,"INSTR","no","OBJ>PP",2,"below","PP>OBJ >> OBJ>PP","condition 1 >> condition 2",8397,256442,32
241,"t20_1_2","t20",1,2,"INSTR","no","PP>OBJ",1,"above","PP>OBJ >> OBJ>PP","condition 1 >> condition 2",11723,354472,40
239,"t20_1_2","t20",1,2,"INSTR","no","OBJ>PP",2,"above","OBJ>PP >> PP>OBJ","condition 2 >> condition 1",9117,147535,14
227,"t20_1_2","t20",1,2,"INSTR","no","OBJ>PP",2,"below","PP>OBJ >> OBJ>PP","condition 1 >> condition 2",7138,545501,43
249,"t20_1_2","t20",1,2,"INSTR","no","OBJ>PP",2,"below","PP>OBJ >> OBJ>PP","condition 1 >> condition 2",20023,122473,8
231,"t20_1_2","t20",1,2,"INSTR","no","OBJ>PP",2,"above","OBJ>PP >> PP>OBJ","condition 2 >> condition 1",13810,425392,52
258,"t20_1_2","t20",1,2,"INSTR","no","PP>OBJ",1,"above","PP>OBJ >> OBJ>PP","condition 1 >> condition 2",7830,291306,30
256,"t20_1_2","t20",1,2,"INSTR","no","OBJ>PP",2,"below","PP>OBJ >> OBJ>PP","condition 1 >> condition 2",6588,636460,66
242,"t20_1_2","t20",1,2,"INSTR","no","OBJ>PP",2,"above","OBJ>PP >> PP>OBJ","condition 2 >> condition 1",10308,316771,28
227,"t21_1_2","t21",1,2,"INSTR","no","PP>OBJ",1,"above","PP>OBJ >> OBJ>PP","condition 1 >> condition 2",15129,82623,6
231,"t21_1_2","t21",1,2,"INSTR","no","OBJ>PP",2,"above","OBJ>PP >> PP>OBJ","condition 2 >> condition 1",8825,95390,11
239,"t21_1_2","t21",1,2,"INSTR","no","PP>OBJ",1,"below","OBJ>PP >> PP>OBJ","condition 2 >> condition 1",9383,330829,37
229,"t21_1_2","t21",1,2,"INSTR","no","OBJ>PP",2,"above","OBJ>PP >> PP>OBJ","condition 2 >> condition 1",16068,163938,20
234,"t21_1_2","t21",1,2,"INSTR","no","OBJ>PP",2,"below","PP>OBJ >> OBJ>PP","condition 1 >> condition 2",15141,766626,67
271,"t21_1_2","t21",1,2,"INSTR","no","OBJ>PP",2,"above","OBJ>PP >> PP>OBJ","condition 2 >> condition 1",6467,386588,47
220,"t21_1_2","t21",1,2,"INSTR","no","OBJ>PP",2,"above","OBJ>PP >> PP>OBJ","condition 2 >> condition 1",6019,101551,11
267,"t21_1_2","t21",1,2,"INSTR","no","OBJ>PP",2,"above","OBJ>PP >> PP>OBJ","condition 2 >> condition 1",8108,800814,64
249,"t21_1_2","t21",1,2,"INSTR","no","OBJ>PP",2,"below","PP>OBJ >> OBJ>PP","condition 1 >> condition 2",6358,736521,61
257,"t21_1_2","t21",1,2,"INSTR","no","PP>OBJ",1,"above","PP>OBJ >> OBJ>PP","condition 1 >> condition 2",11200,150916,13
254,"t21_1_2","t21",1,2,"INSTR","no","PP>OBJ",1,"below","OBJ>PP >> PP>OBJ","condition 2 >> condition 1",9991,661096,47
237,"t21_1_2","t21",1,2,"INSTR","no","PP>OBJ",1,"below","OBJ>PP >> PP>OBJ","condition 2 >> condition 1",6140,66757,9
232,"t21_1_2","t21",1,2,"INSTR","no","PP>OBJ",1,"above","PP>OBJ >> OBJ>PP","condition 1 >> condition 2",39984,249818,35
236,"t21_1_2","t21",1,2,"INSTR","no","PP>OBJ",1,"below","OBJ>PP >> PP>OBJ","condition 2 >> condition 1",21654,199457,17
270,"t21_1_2","t21",1,2,"INSTR","no","OBJ>PP",2,"above","OBJ>PP >> PP>OBJ","condition 2 >> condition 1",8673,386051,32
242,"t21_1_2","t21",1,2,"INSTR","no","OBJ>PP",2,"below","PP>OBJ >> OBJ>PP","condition 1 >> condition 2",14890,127410,9
224,"t21_1_2","t21",1,2,"INSTR","no","OBJ>PP",2,"below","PP>OBJ >> OBJ>PP","condition 1 >> condition 2",9890,384705,52
266,"t21_1_2","t21",1,2,"INSTR","no","PP>OBJ",1,"below","OBJ>PP >> PP>OBJ","condition 2 >> condition 1",15481,479142,40
258,"t21_1_2","t21",1,2,"INSTR","no","OBJ>PP",2,"above","OBJ>PP >> PP>OBJ","condition 2 >> condition 1",9660,146415,17
243,"t21_1_2","t21",1,2,"INSTR","no","OBJ>PP",2,"below","PP>OBJ >> OBJ>PP","condition 1 >> condition 2",7187,529543,51
225,"t21_1_2","t21",1,2,"INSTR","no","PP>OBJ",1,"below","OBJ>PP >> PP>OBJ","condition 2 >> condition 1",8627,93061,12
238,"t21_1_2","t21",1,2,"INSTR","no","OBJ>PP",2,"above","OBJ>PP >> PP>OBJ","condition 2 >> condition 1",13031,118236,14
263,"t21_1_2","t21",1,2,"INSTR","no","OBJ>PP",2,"above","OBJ>PP >> PP>OBJ","condition 2 >> condition 1",3766,596292,66
256,"t21_1_2","t21",1,2,"INSTR","no","OBJ>PP",2,"below","PP>OBJ >> OBJ>PP","condition 1 >> condition 2",8326,622880,64
246,"t21_1_2","t21",1,2,"INSTR","no","PP>OBJ",1,"below","OBJ>PP >> PP>OBJ","condition 2 >> condition 1",10059,613892,68
241,"t21_1_2","t21",1,2,"INSTR","no","OBJ>PP",2,"above","OBJ>PP >> PP>OBJ","condition 2 >> condition 1",4680,391028,46
221,"t21_1_2","t21",1,2,"INSTR","no","PP>OBJ",1,"above","PP>OBJ >> OBJ>PP","condition 1 >> condition 2",8367,702250,64
223,"t21_1_2","t21",1,2,"INSTR","no","PP>OBJ",1,"above","PP>OBJ >> OBJ>PP","condition 1 >> condition 2",8158,397662,41
253,"t21_1_2","t21",1,2,"INSTR","no","PP>OBJ",1,"above","PP>OBJ >> OBJ>PP","condition 1 >> condition 2",9853,298292,28
228,"t21_1_2","t21",1,2,"INSTR","no","PP>OBJ",1,"below","OBJ>PP >> PP>OBJ","condition 2 >> condition 1",6201,299127,31
222,"t21_1_2","t21",1,2,"INSTR","no","OBJ>PP",2,"below","PP>OBJ >> OBJ>PP","condition 1 >> condition 2",5849,567671,63
230,"t21_1_2","t21",1,2,"INSTR","no","OBJ>PP",2,"below","PP>OBJ >> OBJ>PP","condition 1 >> condition 2",8037,206404,22
244,"t21_1_2","t21",1,2,"INSTR","no","PP>OBJ",1,"below","OBJ>PP >> PP>OBJ","condition 2 >> condition 1",10141,180401,18
232,"t22_1_2","t22",1,2,"INSTR","no","PP>OBJ",1,"above","PP>OBJ >> OBJ>PP","condition 1 >> condition 2",4512,198290,33
231,"t22_1_2","t22",1,2,"INSTR","no","OBJ>PP",2,"below","PP>OBJ >> OBJ>PP","condition 1 >> condition 2",7543,80916,9
237,"t22_1_2","t22",1,2,"INSTR","no","PP>OBJ",1,"below","OBJ>PP >> PP>OBJ","condition 2 >> condition 1",10906,86095,11
241,"t22_1_2","t22",1,2,"INSTR","no","OBJ>PP",2,"below","PP>OBJ >> OBJ>PP","condition 1 >> condition 2",5105,485547,61
234,"t22_1_2","t22",1,2,"INSTR","no","OBJ>PP",2,"below","PP>OBJ >> OBJ>PP","condition 1 >> condition 2",11144,783712,69
246,"t22_1_2","t22",1,2,"INSTR","no","PP>OBJ",1,"above","PP>OBJ >> OBJ>PP","condition 1 >> condition 2",9611,581281,64
239,"t22_1_2","t22",1,2,"INSTR","no","PP>OBJ",1,"below","OBJ>PP >> PP>OBJ","condition 2 >> condition 1",4549,524609,65
242,"t22_1_2","t22",1,2,"INSTR","no","OBJ>PP",2,"below","PP>OBJ >> OBJ>PP","condition 1 >> condition 2",7196,528426,54
257,"t22_1_2","t22",1,2,"INSTR","no","PP>OBJ",1,"below","OBJ>PP >> PP>OBJ","condition 2 >> condition 1",10352,630356,64
221,"t22_1_2","t22",1,2,"INSTR","no","OBJ>PP",2,"above","OBJ>PP >> PP>OBJ","condition 2 >> condition 1",11752,750626,69
230,"t22_1_2","t22",1,2,"INSTR","no","PP>OBJ",1,"above","PP>OBJ >> OBJ>PP","condition 1 >> condition 2",7408,453905,52
244,"t22_1_2","t22",1,2,"INSTR","no","OBJ>PP",2,"above","OBJ>PP >> PP>OBJ","condition 2 >> condition 1",8856,283514,28
222,"t22_1_2","t22",1,2,"INSTR","no","OBJ>PP",2,"above","OBJ>PP >> PP>OBJ","condition 2 >> condition 1",11081,344751,35
238,"t22_1_2","t22",1,2,"INSTR","no","OBJ>PP",2,"above","OBJ>PP >> PP>OBJ","condition 2 >> condition 1",7422,382164,49
224,"t22_1_2","t22",1,2,"INSTR","no","OBJ>PP",2,"below","PP>OBJ >> OBJ>PP","condition 1 >> condition 2",5146,316986,42
258,"t22_1_2","t22",1,2,"INSTR","no","OBJ>PP",2,"above","OBJ>PP >> PP>OBJ","condition 2 >> condition 1",10182,469239,47
243,"t22_1_2","t22",1,2,"INSTR","no","OBJ>PP",2,"above","OBJ>PP >> PP>OBJ","condition 2 >> condition 1",8351,726907,69
227,"t22_1_2","t22",1,2,"INSTR","no","PP>OBJ",1,"below","OBJ>PP >> PP>OBJ","condition 2 >> condition 1",11858,215996,17
271,"t22_1_2","t22",1,2,"INSTR","no","OBJ>PP",2,"below","PP>OBJ >> OBJ>PP","condition 1 >> condition 2",6322,442733,56
220,"t22_1_2","t22",1,2,"INSTR","no","OBJ>PP",2,"below","PP>OBJ >> OBJ>PP","condition 1 >> condition 2",4712,242081,27
223,"t22_1_2","t22",1,2,"INSTR","no","OBJ>PP",2,"below","PP>OBJ >> OBJ>PP","condition 1 >> condition 2",16170,256251,27
249,"t22_1_2","t22",1,2,"INSTR","no","OBJ>PP",2,"below","PP>OBJ >> OBJ>PP","condition 1 >> condition 2",11542,621233,49
228,"t22_1_2","t22",1,2,"INSTR","no","OBJ>PP",2,"below","PP>OBJ >> OBJ>PP","condition 1 >> condition 2",18273,402657,40
236,"t22_1_2","t22",1,2,"INSTR","no","PP>OBJ",1,"above","PP>OBJ >> OBJ>PP","condition 1 >> condition 2",9610,134060,12
263,"t22_1_2","t22",1,2,"INSTR","no","OBJ>PP",2,"below","PP>OBJ >> OBJ>PP","condition 1 >> condition 2",7300,389623,29
270,"t22_1_2","t22",1,2,"INSTR","no","OBJ>PP",2,"above","OBJ>PP >> PP>OBJ","condition 2 >> condition 1",13076,788036,67
254,"t22_1_2","t22",1,2,"INSTR","no","OBJ>PP",2,"below","PP>OBJ >> OBJ>PP","condition 1 >> condition 2",27803,831290,60
253,"t22_1_2","t22",1,2,"INSTR","no","PP>OBJ",1,"below","OBJ>PP >> PP>OBJ","condition 2 >> condition 1",11364,83637,6
225,"t22_1_2","t22",1,2,"INSTR","no","OBJ>PP",2,"below","PP>OBJ >> OBJ>PP","condition 1 >> condition 2",6188,472204,57
267,"t22_1_2","t22",1,2,"INSTR","no","OBJ>PP",2,"below","PP>OBJ >> OBJ>PP","condition 1 >> condition 2",27317,135727,8
266,"t22_1_2","t22",1,2,"INSTR","no","OBJ>PP",2,"below","PP>OBJ >> OBJ>PP","condition 1 >> condition 2",7196,706157,66
229,"t22_1_2","t22",1,2,"INSTR","no","PP>OBJ",1,"below","OBJ>PP >> PP>OBJ","condition 2 >> condition 1",7674,329407,41
256,"t22_1_2","t22",1,2,"INSTR","no","OBJ>PP",2,"above","OBJ>PP >> PP>OBJ","condition 2 >> condition 1",10378,539825,54
224,"t23_1_2","t23",1,2,"INSTR","no","OBJ>PP",2,"above","OBJ>PP >> PP>OBJ","condition 2 >> condition 1",9100,137182,16
267,"t23_1_2","t23",1,2,"INSTR","no","OBJ>PP",2,"above","OBJ>PP >> PP>OBJ","condition 2 >> condition 1",12432,375863,29
237,"t23_1_2","t23",1,2,"INSTR","no","PP>OBJ",1,"above","PP>OBJ >> OBJ>PP","condition 1 >> condition 2",7811,444577,46
242,"t23_1_2","t23",1,2,"INSTR","no","OBJ>PP",2,"above","OBJ>PP >> PP>OBJ","condition 2 >> condition 1",9917,272104,23
228,"t23_1_2","t23",1,2,"INSTR","no","PP>OBJ",1,"below","OBJ>PP >> PP>OBJ","condition 2 >> condition 1",7967,259189,25
254,"t23_1_2","t23",1,2,"INSTR","no","PP>OBJ",1,"below","OBJ>PP >> PP>OBJ","condition 2 >> condition 1",7071,463616,30
229,"t23_1_2","t23",1,2,"INSTR","no","PP>OBJ",1,"below","OBJ>PP >> PP>OBJ","condition 2 >> condition 1",5989,463824,60
249,"t23_1_2","t23",1,2,"INSTR","no","OBJ>PP",2,"above","OBJ>PP >> PP>OBJ","condition 2 >> condition 1",27990,83185,6
263,"t23_1_2","t23",1,2,"INSTR","no","OBJ>PP",2,"above","OBJ>PP >> PP>OBJ","condition 2 >> condition 1",5799,617742,70
253,"t23_1_2","t23",1,2,"INSTR","no","OBJ>PP",2,"above","OBJ>PP >> PP>OBJ","condition 2 >> condition 1",8263,162813,12
246,"t23_1_2","t23",1,2,"INSTR","no","OBJ>PP",2,"below","PP>OBJ >> OBJ>PP","condition 1 >> condition 2",6931,454335,48
236,"t23_1_2","t23",1,2,"INSTR","no","OBJ>PP",2,"below","PP>OBJ >> OBJ>PP","condition 1 >> condition 2",11046,167680,15
244,"t23_1_2","t23",1,2,"INSTR","no","OBJ>PP",2,"above","OBJ>PP >> PP>OBJ","condition 2 >> condition 1",9735,402527,42
266,"t23_1_2","t23",1,2,"INSTR","no","PP>OBJ",1,"below","OBJ>PP >> PP>OBJ","condition 2 >> condition 1",6167,658821,61
257,"t23_1_2","t23",1,2,"INSTR","no","PP>OBJ",1,"above","PP>OBJ >> OBJ>PP","condition 1 >> condition 2",15010,243096,21
220,"t23_1_2","t23",1,2,"INSTR","no","OBJ>PP",2,"below","PP>OBJ >> OBJ>PP","condition 1 >> condition 2",7045,123022,14
225,"t23_1_2","t23",1,2,"INSTR","no","OBJ>PP",2,"below","PP>OBJ >> OBJ>PP","condition 1 >> condition 2",14080,140722,16
223,"t23_1_2","t23",1,2,"INSTR","no","OBJ>PP",2,"above","OBJ>PP >> PP>OBJ","condition 2 >> condition 1",6376,510018,52
243,"t23_1_2","t23",1,2,"INSTR","no","OBJ>PP",2,"above","OBJ>PP >> PP>OBJ","condition 2 >> condition 1",14086,171960,16
231,"t23_1_2","t23",1,2,"INSTR","no","OBJ>PP",2,"below","PP>OBJ >> OBJ>PP","condition 1 >> condition 2",7396,176215,21
271,"t23_1_2","t23",1,2,"INSTR","no","OBJ>PP",2,"above","OBJ>PP >> PP>OBJ","condition 2 >> condition 1",6969,467072,60
239,"t23_1_2","t23",1,2,"INSTR","no","PP>OBJ",1,"below","OBJ>PP >> PP>OBJ","condition 2 >> condition 1",7370,315664,35
238,"t23_1_2","t23",1,2,"INSTR","no","PP>OBJ",1,"below","OBJ>PP >> PP>OBJ","condition 2 >> condition 1",9295,421980,55
258,"t23_1_2","t23",1,2,"INSTR","no","PP>OBJ",1,"above","PP>OBJ >> OBJ>PP","condition 1 >> condition 2",15099,319388,32
227,"t23_1_2","t23",1,2,"INSTR","no","PP>OBJ",1,"above","PP>OBJ >> OBJ>PP","condition 1 >> condition 2",14708,157354,12
270,"t23_1_2","t23",1,2,"INSTR","no","OBJ>PP",2,"below","PP>OBJ >> OBJ>PP","condition 1 >> condition 2",11181,187719,16
234,"t23_1_2","t23",1,2,"INSTR","no","OBJ>PP",2,"above","OBJ>PP >> PP>OBJ","condition 2 >> condition 1",11827,250515,18
230,"t23_1_2","t23",1,2,"INSTR","no","PP>OBJ",1,"above","PP>OBJ >> OBJ>PP","condition 1 >> condition 2",5971,362253,41
241,"t23_1_2","t23",1,2,"INSTR","no","OBJ>PP",2,"above","OBJ>PP >> PP>OBJ","condition 2 >> condition 1",10193,520421,66
256,"t23_1_2","t23",1,2,"INSTR","no","OBJ>PP",2,"above","OBJ>PP >> PP>OBJ","condition 2 >> condition 1",14407,153456,15
221,"t23_1_2","t23",1,2,"INSTR","no","PP>OBJ",1,"below","OBJ>PP >> PP>OBJ","condition 2 >> condition 1",9610,325181,25
222,"t23_1_2","t23",1,2,"INSTR","no","PP>OBJ",1,"above","PP>OBJ >> OBJ>PP","condition 1 >> condition 2",7816,223727,22
232,"t23_1_2","t23",1,2,"INSTR","no","PP>OBJ",1,"above","PP>OBJ >> OBJ>PP","condition 1 >> condition 2",4588,391344,61
242,"t24_1_2","t24",1,2,"INSTR","no","OBJ>PP",2,"below","PP>OBJ >> OBJ>PP","condition 1 >> condition 2",7446,178758,14
224,"t24_1_2","t24",1,2,"INSTR","no","OBJ>PP",2,"below","PP>OBJ >> OBJ>PP","condition 1 >> condition 2",5992,123347,14
267,"t24_1_2","t24",1,2,"INSTR","no","OBJ>PP",2,"below","PP>OBJ >> OBJ>PP","condition 1 >> condition 2",9954,396168,31
263,"t24_1_2","t24",1,2,"INSTR","no","PP>OBJ",1,"above","PP>OBJ >> OBJ>PP","condition 1 >> condition 2",7483,563308,60
232,"t24_1_2","t24",1,2,"INSTR","no","PP>OBJ",1,"above","PP>OBJ >> OBJ>PP","condition 1 >> condition 2",4477,187582,31
236,"t24_1_2","t24",1,2,"INSTR","no","OBJ>PP",2,"below","PP>OBJ >> OBJ>PP","condition 1 >> condition 2",20184,245848,20
223,"t24_1_2","t24",1,2,"INSTR","no","PP>OBJ",1,"below","OBJ>PP >> PP>OBJ","condition 2 >> condition 1",10395,151298,15
228,"t24_1_2","t24",1,2,"INSTR","no","OBJ>PP",2,"below","PP>OBJ >> OBJ>PP","condition 1 >> condition 2",9283,94933,9
229,"t24_1_2","t24",1,2,"INSTR","no","PP>OBJ",1,"above","PP>OBJ >> OBJ>PP","condition 1 >> condition 2",6176,383146,50
266,"t24_1_2","t24",1,2,"INSTR","no","OBJ>PP",2,"above","OBJ>PP >> PP>OBJ","condition 2 >> condition 1",15205,441399,36
270,"t24_1_2","t24",1,2,"INSTR","no","OBJ>PP",2,"above","OBJ>PP >> PP>OBJ","condition 2 >> condition 1",8752,281688,23
230,"t24_1_2","t24",1,2,"INSTR","no","PP>OBJ",1,"below","OBJ>PP >> PP>OBJ","condition 2 >> condition 1",12650,89016,8
254,"t24_1_2","t24",1,2,"INSTR","no","PP>OBJ",1,"below","OBJ>PP >> PP>OBJ","condition 2 >> condition 1",11939,698462,50
257,"t24_1_2","t24",1,2,"INSTR","no","OBJ>PP",2,"above","OBJ>PP >> PP>OBJ","condition 2 >> condition 1",8395,379913,35
249,"t24_1_2","t24",1,2,"INSTR","no","OBJ>PP",2,"below","PP>OBJ >> OBJ>PP","condition 1 >> condition 2",7759,272091,19
222,"t24_1_2","t24",1,2,"INSTR","no","OBJ>PP",2,"above","OBJ>PP >> PP>OBJ","condition 2 >> condition 1",7031,367810,38
220,"t24_1_2","t24",1,2,"INSTR","no","OBJ>PP",2,"above","OBJ>PP >> PP>OBJ","condition 2 >> condition 1",9176,222163,24
234,"t24_1_2","t24",1,2,"INSTR","no","PP>OBJ",1,"below","OBJ>PP >> PP>OBJ","condition 2 >> condition 1",15812,124079,10
243,"t24_1_2","t24",1,2,"INSTR","no","OBJ>PP",2,"below","PP>OBJ >> OBJ>PP","condition 1 >> condition 2",10486,238992,22
227,"t24_1_2","t24",1,2,"INSTR","no","PP>OBJ",1,"above","PP>OBJ >> OBJ>PP","condition 1 >> condition 2",12746,347364,28
239,"t24_1_2","t24",1,2,"INSTR","no","PP>OBJ",1,"below","OBJ>PP >> PP>OBJ","condition 2 >> condition 1",3805,498334,60
241,"t24_1_2","t24",1,2,"INSTR","no","OBJ>PP",2,"below","PP>OBJ >> OBJ>PP","condition 1 >> condition 2",9063,448489,54
258,"t24_1_2","t24",1,2,"INSTR","no","OBJ>PP",2,"above","OBJ>PP >> PP>OBJ","condition 2 >> condition 1",12874,492814,50
238,"t24_1_2","t24",1,2,"INSTR","no","OBJ>PP",2,"above","OBJ>PP >> PP>OBJ","condition 2 >> condition 1",6902,322348,40
231,"t24_1_2","t24",1,2,"INSTR","no","OBJ>PP",2,"above","OBJ>PP >> PP>OBJ","condition 2 >> condition 1",7246,312817,38
256,"t24_1_2","t24",1,2,"INSTR","no","OBJ>PP",2,"above","OBJ>PP >> PP>OBJ","condition 2 >> condition 1",8702,401122,41
225,"t24_1_2","t24",1,2,"INSTR","no","PP>OBJ",1,"below","OBJ>PP >> PP>OBJ","condition 2 >> condition 1",6432,156522,19
244,"t24_1_2","t24",1,2,"INSTR","no","OBJ>PP",2,"below","PP>OBJ >> OBJ>PP","condition 1 >> condition 2",8808,440464,47
253,"t24_1_2","t24",1,2,"INSTR","no","PP>OBJ",1,"above","PP>OBJ >> OBJ>PP","condition 1 >> condition 2",8260,639252,62
271,"t24_1_2","t24",1,2,"INSTR","no","PP>OBJ",1,"below","OBJ>PP >> PP>OBJ","condition 2 >> condition 1",6684,506090,66
237,"t24_1_2","t24",1,2,"INSTR","no","OBJ>PP",2,"above","OBJ>PP >> PP>OBJ","condition 2 >> condition 1",9104,603733,67
221,"t24_1_2","t24",1,2,"INSTR","no","PP>OBJ",1,"above","PP>OBJ >> OBJ>PP","condition 1 >> condition 2",19023,679102,61
246,"t24_1_2","t24",1,2,"INSTR","no","OBJ>PP",2,"above","OBJ>PP >> PP>OBJ","condition 2 >> condition 1",7000,189648,19
