"workerId","itemId","ENCODING","OPTION_0_CONDITION_NO","OPTION_1_CONDITION_NO","ITEM_FUNCTION","ITEM_SUBGROUP","ANSWER","ANSWER_CONDITION_NO","ANSWER_POSITION","PRESENTATION_ORDER","PRESENTATION_ORDER_CONDITION","rt","time_elapsed","trial_index"
271,"f28_1_3","f28",1,3,"calibration","unrelated","grammatical",1,"above","grammatical >> ?","condition 1 >> condition 3",10639,10645,0
271,"f29_1_2","f29",1,2,"calibration","unrelated","grammatical",1,"above","grammatical >> *","condition 1 >> condition 2",7279,17933,1
271,"f36_1_3","f36",1,3,"calibration","unrelated","grammatical",1,"above","grammatical >> ?","condition 1 >> condition 3",7605,25544,2
271,"f38_1_3","f38",1,3,"calibration","unrelated","grammatical",1,"above","grammatical >> ?","condition 1 >> condition 3",7827,33376,3
271,"f45_1_3","f45",1,3,"calibration","unrelated","grammatical",1,"below","? >> grammatical","condition 3 >> condition 1",8445,41828,4
271,"f23_1_2","f23",1,2,"calibration","pseudo_windef","grammatical",1,"below","* >> grammatical","condition 2 >> condition 1",5575,47410,5
271,"f46_1_3","f46",1,3,"filler","unrelated","grammatical",1,"below","? >> grammatical","condition 3 >> condition 1",6976,54392,6
271,"f02_1_2","f02",1,2,"control","related","SUBJ OBJfix",1,"above","SUBJ OBJfix >> *OBJfix SUBJ","condition 1 >> condition 2",11605,72818,8
271,"f35_1_3","f35",1,3,"filler","unrelated","grammatical",1,"below","? >> grammatical","condition 3 >> condition 1",6688,79508,9
271,"f11_1_2","f11",1,2,"control","unrelated","SUBJ OBJ",1,"above","SUBJ OBJ >> *OBJ SUBJ","condition 1 >> condition 2",6929,97164,11
271,"f34_1_3","f34",1,3,"filler","unrelated (pseudo_TEMP/CC)","grammatical",1,"below","? >> grammatical","condition 3 >> condition 1",8426,114400,13
271,"f06_1_2","f06",1,2,"control","related","SUBJ OBJfix",1,"below","*OBJfix SUBJ >> SUBJ OBJfix","condition 2 >> condition 1",5177,128419,15
271,"f47_1_3","f47",1,3,"filler","unrelated","grammatical",1,"above","grammatical >> ?","condition 1 >> condition 3",13698,150159,17
271,"f16_1_2","f16",1,2,"control","unrelated","SUBJ OBJ",1,"above","SUBJ OBJ >> *OBJ SUBJ","condition 1 >> condition 2",6543,156706,18
271,"f39_1_2","f39",1,2,"filler","pseudo_manner/INSTR","grammatical",1,"below","* >> grammatical","condition 2 >> condition 1",6263,170940,20
271,"f19_1_2","f19",1,2,"control","related","grammatical",1,"above","grammatical >> *","condition 1 >> condition 2",6425,177372,21
271,"f41_1_3","f41",1,3,"filler","unrelated (pseudo_CC)","grammatical",1,"above","grammatical >> ?","condition 1 >> condition 3",9641,192540,23
271,"f17_1_2","f17",1,2,"control","related","grammatical",1,"below","* >> grammatical","condition 2 >> condition 1",9967,202511,24
271,"f26_1_2","f26",1,2,"attention","pseudo_windef/TEMP","grammatical",1,"below","* >> grammatical","condition 2 >> condition 1",11776,214290,25
271,"f04_1_2","f04",1,2,"control","related","SUBJ OBJfix",1,"below","*OBJfix SUBJ >> SUBJ OBJfix","condition 2 >> condition 1",4996,225578,27
271,"f32_1_2","f32",1,2,"filler","unrelated (pseudo_TEMP)","grammatical",1,"below","* >> grammatical","condition 2 >> condition 1",5150,230730,28
271,"f15_1_2","f15",1,2,"control","unrelated","SUBJ OBJ",1,"above","SUBJ OBJ >> *OBJ SUBJ","condition 1 >> condition 2",4448,241134,30
271,"f33_1_3","f33",1,3,"filler","unrelated (pseudo_TEMP)","grammatical",1,"below","? >> grammatical","condition 3 >> condition 1",6902,248040,31
271,"f09_1_2","f09",1,2,"control","unrelated","SUBJ OBJ",1,"above","SUBJ OBJ >> *OBJ SUBJ","condition 1 >> condition 2",7564,264009,33
271,"f22_1_2","f22",1,2,"attention","pseudo_windef","grammatical",1,"above","grammatical >> *","condition 1 >> condition 2",9998,282048,35
271,"f03_1_2","f03",1,2,"control","related","SUBJ OBJfix",1,"above","SUBJ OBJfix >> *OBJfix SUBJ","condition 1 >> condition 2",6107,288160,36
271,"f44_1_3","f44",1,3,"filler","unrelated","grammatical",1,"above","grammatical >> ?","condition 1 >> condition 3",6904,300760,38
271,"f20_1_2","f20",1,2,"control","unrelated","grammatical",1,"below","* >> grammatical","condition 2 >> condition 1",5383,312468,40
271,"f37_1_2","f37",1,2,"attention","pseudo_COM/manner","grammatical",1,"above","grammatical >> *","condition 1 >> condition 2",31341,350549,42
271,"f10_1_2","f10",1,2,"control","unrelated","SUBJ OBJ",1,"above","SUBJ OBJ >> *OBJ SUBJ","condition 1 >> condition 2",6348,364691,44
271,"f48_1_2","f48",1,2,"attention","unrelated","grammatical",1,"below","* >> grammatical","condition 2 >> condition 1",10551,375244,45
271,"f13_1_2","f13",1,2,"control","unrelated","SUBJ OBJ",1,"below","*OBJ SUBJ >> SUBJ OBJ","condition 2 >> condition 1",4871,380118,46
271,"f27_1_3","f27",1,3,"filler","pseudo_windef/CC","grammatical",1,"below","? >> grammatical","condition 3 >> condition 1",5249,391838,48
271,"f14_1_2","f14",1,2,"control","unrelated","SUBJ OBJ",1,"below","*OBJ SUBJ >> SUBJ OBJ","condition 2 >> condition 1",5067,396909,49
271,"f24_1_2","f24",1,2,"attention","pseudo_windef","grammatical",1,"below","* >> grammatical","condition 2 >> condition 1",4980,410028,51
271,"f01_1_2","f01",1,2,"control","related","SUBJ OBJfix",1,"above","SUBJ OBJfix >> *OBJfix SUBJ","condition 1 >> condition 2",5394,415425,52
271,"f25_1_3","f25",1,3,"filler","pseudo_windef","grammatical",1,"above","grammatical >> ?","condition 1 >> condition 3",5202,428540,54
271,"f12_1_2","f12",1,2,"control","unrelated","SUBJ OBJ",1,"above","SUBJ OBJ >> *OBJ SUBJ","condition 1 >> condition 2",7863,436407,55
271,"f31_1_3","f31",1,3,"filler","unrelated","grammatical",1,"above","grammatical >> ?","condition 1 >> condition 3",7797,450534,57
271,"f05_1_2","f05",1,2,"control","related","SUBJ OBJfix",1,"above","SUBJ OBJfix >> *OBJfix SUBJ","condition 1 >> condition 2",4786,460101,59
271,"f40_1_3","f40",1,3,"filler","unrelated (pseudo_TEMP)","grammatical",1,"above","grammatical >> ?","condition 1 >> condition 3",9134,476208,61
271,"f18_1_2","f18",1,2,"control","unrelated","grammatical",1,"below","* >> grammatical","condition 2 >> condition 1",4450,480661,62
271,"f42_1_3","f42",1,3,"filler","unrelated (pseudo_manner)","grammatical",1,"below","? >> grammatical","condition 3 >> condition 1",5523,494474,64
271,"f07_1_2","f07",1,2,"control","related","SUBJ OBJfix",1,"above","SUBJ OBJfix >> *OBJfix SUBJ","condition 1 >> condition 2",4925,499403,65
271,"f43_1_2","f43",1,2,"attention","unrelated (pseudo_manner)","grammatical",1,"above","grammatical >> *","condition 1 >> condition 2",9407,515502,67
271,"f08_1_2","f08",1,2,"control","related","SUBJ OBJfix",1,"below","*OBJfix SUBJ >> SUBJ OBJfix","condition 2 >> condition 1",4442,519950,68
271,"f21_1_3","f21",1,3,"filler","pseudo_windef","grammatical",1,"above","grammatical >> ?","condition 1 >> condition 3",5596,525551,69
271,"f30_1_3","f30",1,3,"filler","pseudo_manner/COM","grammatical",1,"above","grammatical >> ?","condition 1 >> condition 3",7587,538860,71
270,"f36_1_3","f36",1,3,"calibration","unrelated","grammatical",1,"above","grammatical >> ?","condition 1 >> condition 3",10046,10048,0
270,"f28_1_3","f28",1,3,"calibration","unrelated","grammatical",1,"above","grammatical >> ?","condition 1 >> condition 3",11454,21508,1
270,"f45_1_3","f45",1,3,"calibration","unrelated","grammatical",1,"below","? >> grammatical","condition 3 >> condition 1",9840,31352,2
270,"f38_1_3","f38",1,3,"calibration","unrelated","grammatical",1,"above","grammatical >> ?","condition 1 >> condition 3",9385,40739,3
270,"f23_1_2","f23",1,2,"calibration","pseudo_windef","grammatical",1,"above","grammatical >> *","condition 1 >> condition 2",9540,50281,4
270,"f29_1_2","f29",1,2,"calibration","unrelated","grammatical",1,"below","* >> grammatical","condition 2 >> condition 1",7134,57417,5
270,"f40_1_3","f40",1,3,"filler","unrelated (pseudo_TEMP)","grammatical",1,"below","? >> grammatical","condition 3 >> condition 1",9913,86571,7
270,"f17_1_2","f17",1,2,"control","related","grammatical",1,"above","grammatical >> *","condition 1 >> condition 2",6857,106703,9
270,"f24_1_2","f24",1,2,"attention","pseudo_windef","grammatical",1,"above","grammatical >> *","condition 1 >> condition 2",16448,136474,11
270,"f14_1_2","f14",1,2,"control","unrelated","SUBJ OBJ",1,"above","SUBJ OBJ >> *OBJ SUBJ","condition 1 >> condition 2",11792,148268,12
270,"f35_1_3","f35",1,3,"filler","unrelated","grammatical",1,"below","? >> grammatical","condition 3 >> condition 1",8467,168540,14
270,"f08_1_2","f08",1,2,"control","related","SUBJ OBJfix",1,"above","SUBJ OBJfix >> *OBJfix SUBJ","condition 1 >> condition 2",7992,176534,15
270,"f27_1_3","f27",1,3,"filler","pseudo_windef/CC","grammatical",1,"above","grammatical >> ?","condition 1 >> condition 3",10822,198543,17
270,"f15_1_2","f15",1,2,"control","unrelated","SUBJ OBJ",1,"below","*OBJ SUBJ >> SUBJ OBJ","condition 2 >> condition 1",9125,207671,18
270,"f44_1_3","f44",1,3,"filler","unrelated","grammatical",1,"above","grammatical >> ?","condition 1 >> condition 3",10159,230565,20
270,"f01_1_2","f01",1,2,"control","related","SUBJ OBJfix",1,"above","SUBJ OBJfix >> *OBJfix SUBJ","condition 1 >> condition 2",28003,272934,22
270,"f47_1_3","f47",1,3,"filler","unrelated","grammatical",1,"below","? >> grammatical","condition 3 >> condition 1",13872,295562,24
270,"f07_1_2","f07",1,2,"control","related","SUBJ OBJfix",1,"below","*OBJfix SUBJ >> SUBJ OBJfix","condition 2 >> condition 1",20280,315844,25
270,"f41_1_3","f41",1,3,"filler","unrelated (pseudo_CC)","grammatical",1,"above","grammatical >> ?","condition 1 >> condition 3",10089,336860,27
270,"f20_1_2","f20",1,2,"control","unrelated","grammatical",1,"above","grammatical >> *","condition 1 >> condition 2",9708,346570,28
270,"f21_1_3","f21",1,3,"filler","pseudo_windef","grammatical",1,"above","grammatical >> ?","condition 1 >> condition 3",10579,369272,30
270,"f09_1_2","f09",1,2,"control","unrelated","SUBJ OBJ",1,"below","*OBJ SUBJ >> SUBJ OBJ","condition 2 >> condition 1",8101,377375,31
270,"f34_1_3","f34",1,3,"filler","unrelated (pseudo_TEMP/CC)","grammatical",1,"below","? >> grammatical","condition 3 >> condition 1",8516,394569,33
270,"f19_1_2","f19",1,2,"control","related","grammatical",1,"above","grammatical >> *","condition 1 >> condition 2",10510,405081,34
270,"f37_1_2","f37",1,2,"attention","pseudo_COM/manner","grammatical",1,"above","grammatical >> *","condition 1 >> condition 2",15444,427407,36
270,"f05_1_2","f05",1,2,"control","related","SUBJ OBJfix",1,"above","SUBJ OBJfix >> *OBJfix SUBJ","condition 1 >> condition 2",11356,450914,38
270,"f42_1_3","f42",1,3,"filler","unrelated (pseudo_manner)","grammatical",1,"above","grammatical >> ?","condition 1 >> condition 3",12040,473570,40
270,"f06_1_2","f06",1,2,"control","related","SUBJ OBJfix",1,"above","SUBJ OBJfix >> *OBJfix SUBJ","condition 1 >> condition 2",6280,479852,41
270,"f46_1_3","f46",1,3,"filler","unrelated","grammatical",1,"above","grammatical >> ?","condition 1 >> condition 3",10836,490690,42
270,"f12_1_2","f12",1,2,"control","unrelated","SUBJ OBJ",1,"below","*OBJ SUBJ >> SUBJ OBJ","condition 2 >> condition 1",9480,500172,43
270,"f39_1_2","f39",1,2,"filler","pseudo_manner/INSTR","grammatical",1,"above","grammatical >> *","condition 1 >> condition 2",33415,533588,44
270,"f16_1_2","f16",1,2,"control","unrelated","SUBJ OBJ",1,"above","SUBJ OBJ >> *OBJ SUBJ","condition 1 >> condition 2",10328,556938,46
270,"f43_1_2","f43",1,2,"attention","unrelated (pseudo_manner)","grammatical",1,"above","grammatical >> *","condition 1 >> condition 2",20556,577495,47
270,"f13_1_2","f13",1,2,"control","unrelated","SUBJ OBJ",1,"below","*OBJ SUBJ >> SUBJ OBJ","condition 2 >> condition 1",5764,583261,48
270,"f25_1_3","f25",1,3,"filler","pseudo_windef","grammatical",1,"above","grammatical >> ?","condition 1 >> condition 3",8208,600889,50
270,"f11_1_2","f11",1,2,"control","unrelated","SUBJ OBJ",1,"above","SUBJ OBJ >> *OBJ SUBJ","condition 1 >> condition 2",6853,619796,52
270,"f33_1_3","f33",1,3,"filler","unrelated (pseudo_TEMP)","grammatical",1,"above","grammatical >> ?","condition 1 >> condition 3",10896,640062,54
270,"f18_1_2","f18",1,2,"control","unrelated","grammatical",1,"above","grammatical >> *","condition 1 >> condition 2",16950,657014,55
270,"f26_1_2","f26",1,2,"attention","pseudo_windef/TEMP","grammatical",1,"above","grammatical >> *","condition 1 >> condition 2",13265,679078,57
270,"f02_1_2","f02",1,2,"control","related","SUBJ OBJfix",1,"below","*OBJfix SUBJ >> SUBJ OBJfix","condition 2 >> condition 1",10749,699696,59
270,"f31_1_3","f31",1,3,"filler","unrelated","grammatical",1,"above","grammatical >> ?","condition 1 >> condition 3",9871,709568,60
270,"f03_1_2","f03",1,2,"control","related","SUBJ OBJfix",1,"above","SUBJ OBJfix >> *OBJfix SUBJ","condition 1 >> condition 2",9333,732584,62
270,"f32_1_2","f32",1,2,"filler","unrelated (pseudo_TEMP)","grammatical",1,"above","grammatical >> *","condition 1 >> condition 2",8300,740886,63
270,"f10_1_2","f10",1,2,"control","unrelated","SUBJ OBJ",1,"above","SUBJ OBJ >> *OBJ SUBJ","condition 1 >> condition 2",8092,759309,65
270,"f30_1_3","f30",1,3,"filler","pseudo_manner/COM","grammatical",1,"below","? >> grammatical","condition 3 >> condition 1",15647,774959,66
270,"f04_1_2","f04",1,2,"control","related","SUBJ OBJfix",1,"below","*OBJfix SUBJ >> SUBJ OBJfix","condition 2 >> condition 1",7100,795140,68
270,"f22_1_2","f22",1,2,"attention","pseudo_windef","grammatical",1,"below","* >> grammatical","condition 2 >> condition 1",10324,815438,70
270,"f48_1_2","f48",1,2,"attention","unrelated","grammatical",1,"below","* >> grammatical","condition 2 >> condition 1",10145,825586,71
267,"f38_1_3","f38",1,3,"calibration","unrelated","grammatical",1,"above","grammatical >> ?","condition 1 >> condition 3",17186,17191,0
267,"f45_1_3","f45",1,3,"calibration","unrelated","grammatical",1,"above","grammatical >> ?","condition 1 >> condition 3",13677,30871,1
267,"f23_1_2","f23",1,2,"calibration","pseudo_windef","grammatical",1,"above","grammatical >> *","condition 1 >> condition 2",14081,44953,2
267,"f29_1_2","f29",1,2,"calibration","unrelated","grammatical",1,"above","grammatical >> *","condition 1 >> condition 2",10660,55616,3
267,"f28_1_3","f28",1,3,"calibration","unrelated","grammatical",1,"below","? >> grammatical","condition 3 >> condition 1",12749,68369,4
267,"f36_1_3","f36",1,3,"calibration","unrelated","grammatical",1,"below","? >> grammatical","condition 3 >> condition 1",9079,77450,5
267,"f25_1_3","f25",1,3,"filler","pseudo_windef","grammatical",1,"above","grammatical >> ?","condition 1 >> condition 3",13369,108409,7
267,"f06_1_2","f06",1,2,"control","related","SUBJ OBJfix",1,"below","*OBJfix SUBJ >> SUBJ OBJfix","condition 2 >> condition 1",11941,147673,9
267,"f48_1_2","f48",1,2,"attention","unrelated","grammatical",1,"above","grammatical >> *","condition 1 >> condition 2",14882,162556,10
267,"f14_1_2","f14",1,2,"control","unrelated","SUBJ OBJ",1,"below","*OBJ SUBJ >> SUBJ OBJ","condition 2 >> condition 1",6694,191447,12
267,"f26_1_2","f26",1,2,"attention","pseudo_windef/TEMP","grammatical",1,"below","* >> grammatical","condition 2 >> condition 1",11378,202826,13
267,"f16_1_2","f16",1,2,"control","unrelated","SUBJ OBJ",1,"below","*OBJ SUBJ >> SUBJ OBJ","condition 2 >> condition 1",6774,209602,14
267,"f37_1_2","f37",1,2,"attention","pseudo_COM/manner","grammatical",1,"above","grammatical >> *","condition 1 >> condition 2",16814,226416,15
267,"f05_1_2","f05",1,2,"control","related","SUBJ OBJfix",1,"below","*OBJfix SUBJ >> SUBJ OBJfix","condition 2 >> condition 1",9548,248225,17
267,"f21_1_3","f21",1,3,"filler","pseudo_windef","grammatical",1,"above","grammatical >> ?","condition 1 >> condition 3",12303,272520,19
267,"f20_1_2","f20",1,2,"control","unrelated","grammatical",1,"above","grammatical >> *","condition 1 >> condition 2",13282,285803,20
267,"f31_1_3","f31",1,3,"filler","unrelated","grammatical",1,"above","grammatical >> ?","condition 1 >> condition 3",10570,306448,22
267,"f04_1_2","f04",1,2,"control","related","SUBJ OBJfix",1,"below","*OBJfix SUBJ >> SUBJ OBJfix","condition 2 >> condition 1",8331,323017,24
267,"f43_1_2","f43",1,2,"attention","unrelated (pseudo_manner)","grammatical",1,"below","* >> grammatical","condition 2 >> condition 1",9789,346908,26
267,"f03_1_2","f03",1,2,"control","related","SUBJ OBJfix",1,"above","SUBJ OBJfix >> *OBJfix SUBJ","condition 1 >> condition 2",8121,363430,28
267,"f44_1_3","f44",1,3,"filler","unrelated","grammatical",1,"above","grammatical >> ?","condition 1 >> condition 3",10348,386212,30
267,"f10_1_2","f10",1,2,"control","unrelated","SUBJ OBJ",1,"above","SUBJ OBJ >> *OBJ SUBJ","condition 1 >> condition 2",10091,406260,32
267,"f42_1_3","f42",1,3,"filler","unrelated (pseudo_manner)","grammatical",1,"above","grammatical >> ?","condition 1 >> condition 3",16318,431797,34
267,"f19_1_2","f19",1,2,"control","related","grammatical",1,"below","* >> grammatical","condition 2 >> condition 1",14525,446323,35
267,"f47_1_3","f47",1,3,"filler","unrelated","grammatical",1,"above","grammatical >> ?","condition 1 >> condition 3",14076,471772,37
267,"f08_1_2","f08",1,2,"control","related","SUBJ OBJfix",1,"below","*OBJfix SUBJ >> SUBJ OBJfix","condition 2 >> condition 1",11598,498905,39
267,"f34_1_3","f34",1,3,"filler","unrelated (pseudo_TEMP/CC)","grammatical",1,"above","grammatical >> ?","condition 1 >> condition 3",17080,532918,41
267,"f02_1_2","f02",1,2,"control","related","SUBJ OBJfix",1,"above","SUBJ OBJfix >> *OBJfix SUBJ","condition 1 >> condition 2",17473,550392,42
267,"f30_1_3","f30",1,3,"filler","pseudo_manner/COM","grammatical",1,"above","grammatical >> ?","condition 1 >> condition 3",25708,576101,43
267,"f07_1_2","f07",1,2,"control","related","SUBJ OBJfix",1,"above","SUBJ OBJfix >> *OBJfix SUBJ","condition 1 >> condition 2",6811,592529,45
267,"f35_1_3","f35",1,3,"filler","unrelated","grammatical",1,"below","? >> grammatical","condition 3 >> condition 1",63047,655577,46
267,"f01_1_2","f01",1,2,"control","related","SUBJ OBJfix",1,"below","*OBJfix SUBJ >> SUBJ OBJfix","condition 2 >> condition 1",4709,667235,48
267,"f39_1_2","f39",1,2,"filler","pseudo_manner/INSTR","grammatical",1,"below","* >> grammatical","condition 2 >> condition 1",14981,682217,49
267,"f17_1_2","f17",1,2,"control","related","grammatical",1,"below","* >> grammatical","condition 2 >> condition 1",5253,687473,50
267,"f33_1_3","f33",1,3,"filler","unrelated (pseudo_TEMP)","grammatical",1,"below","? >> grammatical","condition 3 >> condition 1",8424,695898,51
267,"f09_1_2","f09",1,2,"control","unrelated","SUBJ OBJ",1,"above","SUBJ OBJ >> *OBJ SUBJ","condition 1 >> condition 2",9425,705325,52
267,"f32_1_2","f32",1,2,"filler","unrelated (pseudo_TEMP)","grammatical",1,"above","grammatical >> *","condition 1 >> condition 2",8290,720187,54
267,"f15_1_2","f15",1,2,"control","unrelated","SUBJ OBJ",1,"below","*OBJ SUBJ >> SUBJ OBJ","condition 2 >> condition 1",5328,725517,55
267,"f22_1_2","f22",1,2,"attention","pseudo_windef","grammatical",1,"below","* >> grammatical","condition 2 >> condition 1",7190,741227,57
267,"f18_1_2","f18",1,2,"control","unrelated","grammatical",1,"below","* >> grammatical","condition 2 >> condition 1",7203,748431,58
267,"f24_1_2","f24",1,2,"attention","pseudo_windef","grammatical",1,"above","grammatical >> *","condition 1 >> condition 2",6660,755094,59
267,"f13_1_2","f13",1,2,"control","unrelated","SUBJ OBJ",1,"above","SUBJ OBJ >> *OBJ SUBJ","condition 1 >> condition 2",7707,775376,61
267,"f40_1_3","f40",1,3,"filler","unrelated (pseudo_TEMP)","grammatical",1,"above","grammatical >> ?","condition 1 >> condition 3",11369,792706,63
267,"f12_1_2","f12",1,2,"control","unrelated","SUBJ OBJ",1,"below","*OBJ SUBJ >> SUBJ OBJ","condition 2 >> condition 1",5866,806681,65
267,"f27_1_3","f27",1,3,"filler","pseudo_windef/CC","grammatical",1,"above","grammatical >> ?","condition 1 >> condition 3",8600,833245,67
267,"f11_1_2","f11",1,2,"control","unrelated","SUBJ OBJ",1,"above","SUBJ OBJ >> *OBJ SUBJ","condition 1 >> condition 2",8949,842195,68
267,"f46_1_3","f46",1,3,"filler","unrelated","grammatical",1,"above","grammatical >> ?","condition 1 >> condition 3",9735,868217,70
267,"f41_1_3","f41",1,3,"filler","unrelated (pseudo_CC)","grammatical",1,"below","? >> grammatical","condition 3 >> condition 1",18272,886491,71
266,"f45_1_3","f45",1,3,"calibration","unrelated","grammatical",1,"below","? >> grammatical","condition 3 >> condition 1",15587,15589,0
266,"f29_1_2","f29",1,2,"calibration","unrelated","grammatical",1,"above","grammatical >> *","condition 1 >> condition 2",15322,30913,1
266,"f23_1_2","f23",1,2,"calibration","pseudo_windef","grammatical",1,"below","* >> grammatical","condition 2 >> condition 1",9071,39986,2
266,"f28_1_3","f28",1,3,"calibration","unrelated","grammatical",1,"below","? >> grammatical","condition 3 >> condition 1",8819,48806,3
266,"f38_1_3","f38",1,3,"calibration","unrelated","grammatical",1,"below","? >> grammatical","condition 3 >> condition 1",9151,57957,4
266,"f36_1_3","f36",1,3,"calibration","unrelated","grammatical",1,"below","? >> grammatical","condition 3 >> condition 1",6732,64690,5
266,"f47_1_3","f47",1,3,"filler","unrelated","grammatical",1,"above","grammatical >> ?","condition 1 >> condition 3",16116,94015,7
266,"f07_1_2","f07",1,2,"control","related","SUBJ OBJfix",1,"below","*OBJfix SUBJ >> SUBJ OBJfix","condition 2 >> condition 1",8806,102822,8
266,"f22_1_2","f22",1,2,"attention","pseudo_windef","grammatical",1,"above","grammatical >> *","condition 1 >> condition 2",10810,113634,9
266,"f02_1_2","f02",1,2,"control","related","SUBJ OBJfix",1,"above","SUBJ OBJfix >> *OBJfix SUBJ","condition 1 >> condition 2",7935,135894,11
266,"f26_1_2","f26",1,2,"attention","pseudo_windef/TEMP","grammatical",1,"above","grammatical >> *","condition 1 >> condition 2",14019,149914,12
266,"f10_1_2","f10",1,2,"control","unrelated","SUBJ OBJ",1,"below","*OBJ SUBJ >> SUBJ OBJ","condition 2 >> condition 1",5920,171928,14
266,"f41_1_3","f41",1,3,"filler","unrelated (pseudo_CC)","?",3,"above","? >> grammatical","condition 3 >> condition 1",27327,214771,16
266,"f15_1_2","f15",1,2,"control","unrelated","SUBJ OBJ",1,"above","SUBJ OBJ >> *OBJ SUBJ","condition 1 >> condition 2",9343,234650,18
266,"f40_1_3","f40",1,3,"filler","unrelated (pseudo_TEMP)","grammatical",1,"above","grammatical >> ?","condition 1 >> condition 3",9125,252881,20
266,"f09_1_2","f09",1,2,"control","unrelated","SUBJ OBJ",1,"above","SUBJ OBJ >> *OBJ SUBJ","condition 1 >> condition 2",21114,285740,22
266,"f43_1_2","f43",1,2,"attention","unrelated (pseudo_manner)","grammatical",1,"below","* >> grammatical","condition 2 >> condition 1",16223,316913,24
266,"f18_1_2","f18",1,2,"control","unrelated","grammatical",1,"below","* >> grammatical","condition 2 >> condition 1",4707,321622,25
266,"f30_1_3","f30",1,3,"filler","pseudo_manner/COM","grammatical",1,"below","? >> grammatical","condition 3 >> condition 1",15547,337169,26
266,"f17_1_2","f17",1,2,"control","related","grammatical",1,"above","grammatical >> *","condition 1 >> condition 2",6488,343657,27
266,"f44_1_3","f44",1,3,"filler","unrelated","grammatical",1,"below","? >> grammatical","condition 3 >> condition 1",9965,364765,29
266,"f20_1_2","f20",1,2,"control","unrelated","grammatical",1,"below","* >> grammatical","condition 2 >> condition 1",6195,379689,31
266,"f33_1_3","f33",1,3,"filler","unrelated (pseudo_TEMP)","grammatical",1,"above","grammatical >> ?","condition 1 >> condition 3",10760,398600,33
266,"f12_1_2","f12",1,2,"control","unrelated","SUBJ OBJ",1,"below","*OBJ SUBJ >> SUBJ OBJ","condition 2 >> condition 1",9272,407872,34
266,"f42_1_3","f42",1,3,"filler","unrelated (pseudo_manner)","grammatical",1,"below","? >> grammatical","condition 3 >> condition 1",18321,426193,35
266,"f16_1_2","f16",1,2,"control","unrelated","SUBJ OBJ",1,"below","*OBJ SUBJ >> SUBJ OBJ","condition 2 >> condition 1",5855,447254,37
266,"f24_1_2","f24",1,2,"attention","pseudo_windef","grammatical",1,"below","* >> grammatical","condition 2 >> condition 1",9179,456433,38
266,"f04_1_2","f04",1,2,"control","related","SUBJ OBJfix",1,"below","*OBJfix SUBJ >> SUBJ OBJfix","condition 2 >> condition 1",7227,463661,39
266,"f39_1_2","f39",1,2,"filler","pseudo_manner/INSTR","grammatical",1,"below","* >> grammatical","condition 2 >> condition 1",5682,484825,41
266,"f14_1_2","f14",1,2,"control","unrelated","SUBJ OBJ",1,"below","*OBJ SUBJ >> SUBJ OBJ","condition 2 >> condition 1",5088,496565,43
266,"f32_1_2","f32",1,2,"filler","unrelated (pseudo_TEMP)","grammatical",1,"above","grammatical >> *","condition 1 >> condition 2",11083,507649,44
266,"f06_1_2","f06",1,2,"control","related","SUBJ OBJfix",1,"above","SUBJ OBJfix >> *OBJfix SUBJ","condition 1 >> condition 2",6115,522319,46
266,"f31_1_3","f31",1,3,"filler","unrelated","grammatical",1,"above","grammatical >> ?","condition 1 >> condition 3",7684,530003,47
266,"f03_1_2","f03",1,2,"control","related","SUBJ OBJfix",1,"above","SUBJ OBJfix >> *OBJfix SUBJ","condition 1 >> condition 2",8015,538019,48
266,"f46_1_3","f46",1,3,"filler","unrelated","grammatical",1,"above","grammatical >> ?","condition 1 >> condition 3",9957,558321,50
266,"f19_1_2","f19",1,2,"control","related","grammatical",1,"above","grammatical >> *","condition 1 >> condition 2",14724,580178,52
266,"f21_1_3","f21",1,3,"filler","pseudo_windef","grammatical",1,"above","grammatical >> ?","condition 1 >> condition 3",9705,589883,53
266,"f01_1_2","f01",1,2,"control","related","SUBJ OBJfix",1,"above","SUBJ OBJfix >> *OBJfix SUBJ","condition 1 >> condition 2",10519,600404,54
266,"f25_1_3","f25",1,3,"filler","pseudo_windef","grammatical",1,"above","grammatical >> ?","condition 1 >> condition 3",7139,607543,55
266,"f08_1_2","f08",1,2,"control","related","SUBJ OBJfix",1,"below","*OBJfix SUBJ >> SUBJ OBJfix","condition 2 >> condition 1",6732,626973,57
266,"f48_1_2","f48",1,2,"attention","unrelated","grammatical",1,"above","grammatical >> *","condition 1 >> condition 2",13873,647161,59
266,"f11_1_2","f11",1,2,"control","unrelated","SUBJ OBJ",1,"below","*OBJ SUBJ >> SUBJ OBJ","condition 2 >> condition 1",5492,652653,60
266,"f34_1_3","f34",1,3,"filler","unrelated (pseudo_TEMP/CC)","grammatical",1,"above","grammatical >> ?","condition 1 >> condition 3",17899,676721,62
266,"f05_1_2","f05",1,2,"control","related","SUBJ OBJfix",1,"below","*OBJfix SUBJ >> SUBJ OBJfix","condition 2 >> condition 1",4731,681454,63
266,"f35_1_3","f35",1,3,"filler","unrelated","grammatical",1,"below","? >> grammatical","condition 3 >> condition 1",8965,698960,65
266,"f13_1_2","f13",1,2,"control","unrelated","SUBJ OBJ",1,"below","*OBJ SUBJ >> SUBJ OBJ","condition 2 >> condition 1",5383,711540,67
266,"f27_1_3","f27",1,3,"filler","pseudo_windef/CC","grammatical",1,"below","? >> grammatical","condition 3 >> condition 1",9945,728463,69
266,"f37_1_2","f37",1,2,"attention","pseudo_COM/manner","*",2,"below","grammatical >> *","condition 1 >> condition 2",22113,761749,71
263,"f23_1_2","f23",1,2,"calibration","pseudo_windef","grammatical",1,"above","grammatical >> *","condition 1 >> condition 2",12508,12515,0
263,"f29_1_2","f29",1,2,"calibration","unrelated","grammatical",1,"above","grammatical >> *","condition 1 >> condition 2",4630,17156,1
263,"f36_1_3","f36",1,3,"calibration","unrelated","grammatical",1,"above","grammatical >> ?","condition 1 >> condition 3",5992,23159,2
263,"f28_1_3","f28",1,3,"calibration","unrelated","grammatical",1,"above","grammatical >> ?","condition 1 >> condition 3",7567,30739,3
263,"f38_1_3","f38",1,3,"calibration","unrelated","grammatical",1,"below","? >> grammatical","condition 3 >> condition 1",5534,36281,4
263,"f45_1_3","f45",1,3,"calibration","unrelated","grammatical",1,"above","grammatical >> ?","condition 1 >> condition 3",5460,41750,5
263,"f44_1_3","f44",1,3,"filler","unrelated","grammatical",1,"below","? >> grammatical","condition 3 >> condition 1",3468,45224,6
263,"f02_1_2","f02",1,2,"control","related","SUBJ OBJfix",1,"above","SUBJ OBJfix >> *OBJfix SUBJ","condition 1 >> condition 2",5352,50584,7
263,"f41_1_3","f41",1,3,"filler","unrelated (pseudo_CC)","grammatical",1,"below","? >> grammatical","condition 3 >> condition 1",9207,59801,8
263,"f06_1_2","f06",1,2,"control","related","SUBJ OBJfix",1,"above","SUBJ OBJfix >> *OBJfix SUBJ","condition 1 >> condition 2",5770,65579,9
263,"f30_1_3","f30",1,3,"filler","pseudo_manner/COM","grammatical",1,"above","grammatical >> ?","condition 1 >> condition 3",7888,278304,11
263,"f09_1_2","f09",1,2,"control","unrelated","SUBJ OBJ",1,"above","SUBJ OBJ >> *OBJ SUBJ","condition 1 >> condition 2",6591,284902,12
263,"f33_1_3","f33",1,3,"filler","unrelated (pseudo_TEMP)","grammatical",1,"above","grammatical >> ?","condition 1 >> condition 3",6167,291077,13
263,"f10_1_2","f10",1,2,"control","unrelated","SUBJ OBJ",1,"above","SUBJ OBJ >> *OBJ SUBJ","condition 1 >> condition 2",4058,295141,14
263,"f43_1_2","f43",1,2,"attention","unrelated (pseudo_manner)","grammatical",1,"below","* >> grammatical","condition 2 >> condition 1",11150,314234,16
263,"f15_1_2","f15",1,2,"control","unrelated","SUBJ OBJ",1,"below","*OBJ SUBJ >> SUBJ OBJ","condition 2 >> condition 1",3355,325351,18
263,"f21_1_3","f21",1,3,"filler","pseudo_windef","grammatical",1,"below","? >> grammatical","condition 3 >> condition 1",4758,336799,20
263,"f07_1_2","f07",1,2,"control","related","SUBJ OBJfix",1,"below","*OBJfix SUBJ >> SUBJ OBJfix","condition 2 >> condition 1",3302,348076,22
263,"f27_1_3","f27",1,3,"filler","pseudo_windef/CC","grammatical",1,"below","? >> grammatical","condition 3 >> condition 1",4974,357794,24
263,"f03_1_2","f03",1,2,"control","related","SUBJ OBJfix",1,"below","*OBJfix SUBJ >> SUBJ OBJfix","condition 2 >> condition 1",2895,360699,25
263,"f24_1_2","f24",1,2,"attention","pseudo_windef","grammatical",1,"below","* >> grammatical","condition 2 >> condition 1",5285,377493,27
263,"f12_1_2","f12",1,2,"control","unrelated","SUBJ OBJ",1,"above","SUBJ OBJ >> *OBJ SUBJ","condition 1 >> condition 2",4807,382316,28
263,"f31_1_3","f31",1,3,"filler","unrelated","grammatical",1,"below","? >> grammatical","condition 3 >> condition 1",4501,394132,30
263,"f11_1_2","f11",1,2,"control","unrelated","SUBJ OBJ",1,"below","*OBJ SUBJ >> SUBJ OBJ","condition 2 >> condition 1",2980,397118,31
263,"f35_1_3","f35",1,3,"filler","unrelated","grammatical",1,"below","? >> grammatical","condition 3 >> condition 1",3859,400985,32
263,"f18_1_2","f18",1,2,"control","unrelated","grammatical",1,"below","* >> grammatical","condition 2 >> condition 1",2771,408466,34
263,"f46_1_3","f46",1,3,"filler","unrelated","grammatical",1,"above","grammatical >> ?","condition 1 >> condition 3",4671,418720,36
263,"f08_1_2","f08",1,2,"control","related","SUBJ OBJfix",1,"below","*OBJfix SUBJ >> SUBJ OBJfix","condition 2 >> condition 1",4322,429100,38
263,"f42_1_3","f42",1,3,"filler","unrelated (pseudo_manner)","grammatical",1,"above","grammatical >> ?","condition 1 >> condition 3",5411,441907,40
263,"f05_1_2","f05",1,2,"control","related","SUBJ OBJfix",1,"below","*OBJfix SUBJ >> SUBJ OBJfix","condition 2 >> condition 1",2671,456438,42
263,"f26_1_2","f26",1,2,"attention","pseudo_windef/TEMP","grammatical",1,"above","grammatical >> *","condition 1 >> condition 2",5993,462438,43
263,"f20_1_2","f20",1,2,"control","unrelated","grammatical",1,"below","* >> grammatical","condition 2 >> condition 1",2659,470461,45
263,"f22_1_2","f22",1,2,"attention","pseudo_windef","grammatical",1,"above","grammatical >> *","condition 1 >> condition 2",5124,480975,47
263,"f13_1_2","f13",1,2,"control","unrelated","SUBJ OBJ",1,"above","SUBJ OBJ >> *OBJ SUBJ","condition 1 >> condition 2",3464,484446,48
263,"f37_1_2","f37",1,2,"attention","pseudo_COM/manner","grammatical",1,"above","grammatical >> *","condition 1 >> condition 2",6903,496203,50
263,"f01_1_2","f01",1,2,"control","related","SUBJ OBJfix",1,"above","SUBJ OBJfix >> *OBJfix SUBJ","condition 1 >> condition 2",6491,502701,51
263,"f34_1_3","f34",1,3,"filler","unrelated (pseudo_TEMP/CC)","grammatical",1,"above","grammatical >> ?","condition 1 >> condition 3",9866,518855,53
263,"f19_1_2","f19",1,2,"control","related","grammatical",1,"below","* >> grammatical","condition 2 >> condition 1",6993,525855,54
263,"f47_1_3","f47",1,3,"filler","unrelated","grammatical",1,"above","grammatical >> ?","condition 1 >> condition 3",4853,530718,55
263,"f16_1_2","f16",1,2,"control","unrelated","SUBJ OBJ",1,"below","*OBJ SUBJ >> SUBJ OBJ","condition 2 >> condition 1",2509,540361,57
263,"f48_1_2","f48",1,2,"attention","unrelated","grammatical",1,"below","* >> grammatical","condition 2 >> condition 1",9204,549575,58
263,"f14_1_2","f14",1,2,"control","unrelated","SUBJ OBJ",1,"above","SUBJ OBJ >> *OBJ SUBJ","condition 1 >> condition 2",6237,555819,59
263,"f40_1_3","f40",1,3,"filler","unrelated (pseudo_TEMP)","grammatical",1,"above","grammatical >> ?","condition 1 >> condition 3",8031,571355,61
263,"f04_1_2","f04",1,2,"control","related","SUBJ OBJfix",1,"above","SUBJ OBJfix >> *OBJfix SUBJ","condition 1 >> condition 2",3927,580758,63
263,"f32_1_2","f32",1,2,"filler","unrelated (pseudo_TEMP)","grammatical",1,"above","grammatical >> *","condition 1 >> condition 2",7071,592519,65
263,"f17_1_2","f17",1,2,"control","related","grammatical",1,"above","grammatical >> *","condition 1 >> condition 2",4481,600781,67
263,"f25_1_3","f25",1,3,"filler","pseudo_windef","grammatical",1,"above","grammatical >> ?","condition 1 >> condition 3",5410,611922,69
263,"f39_1_2","f39",1,2,"filler","pseudo_manner/INSTR","grammatical",1,"below","* >> grammatical","condition 2 >> condition 1",9611,627360,71
258,"f38_1_3","f38",1,3,"calibration","unrelated","grammatical",1,"above","grammatical >> ?","condition 1 >> condition 3",9472,9475,0
258,"f28_1_3","f28",1,3,"calibration","unrelated","grammatical",1,"above","grammatical >> ?","condition 1 >> condition 3",8929,18408,1
258,"f45_1_3","f45",1,3,"calibration","unrelated","grammatical",1,"above","grammatical >> ?","condition 1 >> condition 3",9836,28246,2
258,"f29_1_2","f29",1,2,"calibration","unrelated","grammatical",1,"below","* >> grammatical","condition 2 >> condition 1",7358,35605,3
258,"f36_1_3","f36",1,3,"calibration","unrelated","grammatical",1,"above","grammatical >> ?","condition 1 >> condition 3",8130,43737,4
258,"f23_1_2","f23",1,2,"calibration","pseudo_windef","grammatical",1,"below","* >> grammatical","condition 2 >> condition 1",5816,49555,5
258,"f41_1_3","f41",1,3,"filler","unrelated (pseudo_CC)","grammatical",1,"below","? >> grammatical","condition 3 >> condition 1",15811,65367,6
258,"f01_1_2","f01",1,2,"control","related","SUBJ OBJfix",1,"above","SUBJ OBJfix >> *OBJfix SUBJ","condition 1 >> condition 2",8470,73838,7
258,"f40_1_3","f40",1,3,"filler","unrelated (pseudo_TEMP)","grammatical",1,"below","? >> grammatical","condition 3 >> condition 1",7976,90065,9
258,"f06_1_2","f06",1,2,"control","related","SUBJ OBJfix",1,"below","*OBJfix SUBJ >> SUBJ OBJfix","condition 2 >> condition 1",6898,104686,11
258,"f44_1_3","f44",1,3,"filler","unrelated","grammatical",1,"below","? >> grammatical","condition 3 >> condition 1",4702,116679,13
258,"f20_1_2","f20",1,2,"control","unrelated","grammatical",1,"above","grammatical >> *","condition 1 >> condition 2",5368,122048,14
258,"f42_1_3","f42",1,3,"filler","unrelated (pseudo_manner)","grammatical",1,"below","? >> grammatical","condition 3 >> condition 1",7361,136754,16
258,"f07_1_2","f07",1,2,"control","related","SUBJ OBJfix",1,"below","*OBJfix SUBJ >> SUBJ OBJfix","condition 2 >> condition 1",7820,154236,18
258,"f24_1_2","f24",1,2,"attention","pseudo_windef","grammatical",1,"below","* >> grammatical","condition 2 >> condition 1",12737,176671,20
258,"f17_1_2","f17",1,2,"control","related","grammatical",1,"below","* >> grammatical","condition 2 >> condition 1",8638,185310,21
258,"f37_1_2","f37",1,2,"attention","pseudo_COM/manner","grammatical",1,"below","* >> grammatical","condition 2 >> condition 1",16817,213497,23
258,"f11_1_2","f11",1,2,"control","unrelated","SUBJ OBJ",1,"above","SUBJ OBJ >> *OBJ SUBJ","condition 1 >> condition 2",10139,223637,24
258,"f27_1_3","f27",1,3,"filler","pseudo_windef/CC","grammatical",1,"below","? >> grammatical","condition 3 >> condition 1",13380,237019,25
258,"f13_1_2","f13",1,2,"control","unrelated","SUBJ OBJ",1,"above","SUBJ OBJ >> *OBJ SUBJ","condition 1 >> condition 2",14197,251217,26
258,"f35_1_3","f35",1,3,"filler","unrelated","grammatical",1,"above","grammatical >> ?","condition 1 >> condition 3",9034,260252,27
258,"f18_1_2","f18",1,2,"control","unrelated","grammatical",1,"below","* >> grammatical","condition 2 >> condition 1",15660,283475,29
258,"f30_1_3","f30",1,3,"filler","pseudo_manner/COM","grammatical",1,"below","? >> grammatical","condition 3 >> condition 1",12981,304288,31
258,"f12_1_2","f12",1,2,"control","unrelated","SUBJ OBJ",1,"above","SUBJ OBJ >> *OBJ SUBJ","condition 1 >> condition 2",6523,325913,33
258,"f25_1_3","f25",1,3,"filler","pseudo_windef","grammatical",1,"above","grammatical >> ?","condition 1 >> condition 3",7270,333183,34
258,"f04_1_2","f04",1,2,"control","related","SUBJ OBJfix",1,"below","*OBJfix SUBJ >> SUBJ OBJfix","condition 2 >> condition 1",9412,359436,36
258,"f43_1_2","f43",1,2,"attention","unrelated (pseudo_manner)","grammatical",1,"above","grammatical >> *","condition 1 >> condition 2",16265,385076,38
258,"f05_1_2","f05",1,2,"control","related","SUBJ OBJfix",1,"above","SUBJ OBJfix >> *OBJfix SUBJ","condition 1 >> condition 2",11070,403765,40
258,"f34_1_3","f34",1,3,"filler","unrelated (pseudo_TEMP/CC)","grammatical",1,"above","grammatical >> ?","condition 1 >> condition 3",15264,419030,41
258,"f02_1_2","f02",1,2,"control","related","SUBJ OBJfix",1,"below","*OBJfix SUBJ >> SUBJ OBJfix","condition 2 >> condition 1",6970,433294,43
258,"f31_1_3","f31",1,3,"filler","unrelated","grammatical",1,"above","grammatical >> ?","condition 1 >> condition 3",12257,445552,44
258,"f19_1_2","f19",1,2,"control","related","grammatical",1,"above","grammatical >> *","condition 1 >> condition 2",7259,459056,46
258,"f33_1_3","f33",1,3,"filler","unrelated (pseudo_TEMP)","grammatical",1,"above","grammatical >> ?","condition 1 >> condition 3",5630,474870,48
258,"f03_1_2","f03",1,2,"control","related","SUBJ OBJfix",1,"above","SUBJ OBJfix >> *OBJfix SUBJ","condition 1 >> condition 2",5068,479939,49
258,"f46_1_3","f46",1,3,"filler","unrelated","grammatical",1,"above","grammatical >> ?","condition 1 >> condition 3",6131,498946,51
258,"f10_1_2","f10",1,2,"control","unrelated","SUBJ OBJ",1,"below","*OBJ SUBJ >> SUBJ OBJ","condition 2 >> condition 1",8127,516628,53
258,"f39_1_2","f39",1,2,"filler","pseudo_manner/INSTR","grammatical",1,"above","grammatical >> *","condition 1 >> condition 2",12831,537467,55
258,"f09_1_2","f09",1,2,"control","unrelated","SUBJ OBJ",1,"below","*OBJ SUBJ >> SUBJ OBJ","condition 2 >> condition 1",5471,542939,56
258,"f22_1_2","f22",1,2,"attention","pseudo_windef","grammatical",1,"below","* >> grammatical","condition 2 >> condition 1",9260,566299,58
258,"f14_1_2","f14",1,2,"control","unrelated","SUBJ OBJ",1,"below","*OBJ SUBJ >> SUBJ OBJ","condition 2 >> condition 1",8106,583852,60
258,"f47_1_3","f47",1,3,"filler","unrelated","grammatical",1,"above","grammatical >> ?","condition 1 >> condition 3",7036,590890,61
258,"f08_1_2","f08",1,2,"control","related","SUBJ OBJfix",1,"above","SUBJ OBJfix >> *OBJfix SUBJ","condition 1 >> condition 2",7687,598579,62
258,"f48_1_2","f48",1,2,"attention","unrelated","grammatical",1,"below","* >> grammatical","condition 2 >> condition 1",9825,622315,64
258,"f16_1_2","f16",1,2,"control","unrelated","SUBJ OBJ",1,"below","*OBJ SUBJ >> SUBJ OBJ","condition 2 >> condition 1",7739,630055,65
258,"f26_1_2","f26",1,2,"attention","pseudo_windef/TEMP","grammatical",1,"above","grammatical >> *","condition 1 >> condition 2",12250,648986,67
258,"f15_1_2","f15",1,2,"control","unrelated","SUBJ OBJ",1,"below","*OBJ SUBJ >> SUBJ OBJ","condition 2 >> condition 1",5374,654361,68
258,"f32_1_2","f32",1,2,"filler","unrelated (pseudo_TEMP)","grammatical",1,"above","grammatical >> *","condition 1 >> condition 2",11780,675214,70
258,"f21_1_3","f21",1,3,"filler","pseudo_windef","grammatical",1,"below","? >> grammatical","condition 3 >> condition 1",7214,682430,71
257,"f23_1_2","f23",1,2,"calibration","pseudo_windef","grammatical",1,"above","grammatical >> *","condition 1 >> condition 2",9441,9442,0
257,"f45_1_3","f45",1,3,"calibration","unrelated","grammatical",1,"above","grammatical >> ?","condition 1 >> condition 3",14351,23798,1
257,"f28_1_3","f28",1,3,"calibration","unrelated","grammatical",1,"above","grammatical >> ?","condition 1 >> condition 3",7614,31418,2
257,"f36_1_3","f36",1,3,"calibration","unrelated","grammatical",1,"above","grammatical >> ?","condition 1 >> condition 3",6780,38204,3
257,"f29_1_2","f29",1,2,"calibration","unrelated","grammatical",1,"above","grammatical >> *","condition 1 >> condition 2",7207,45413,4
257,"f38_1_3","f38",1,3,"calibration","unrelated","grammatical",1,"above","grammatical >> ?","condition 1 >> condition 3",10047,55462,5
257,"f39_1_2","f39",1,2,"filler","pseudo_manner/INSTR","grammatical",1,"below","* >> grammatical","condition 2 >> condition 1",10832,82218,7
257,"f20_1_2","f20",1,2,"control","unrelated","grammatical",1,"above","grammatical >> *","condition 1 >> condition 2",14569,110987,9
257,"f46_1_3","f46",1,3,"filler","unrelated","grammatical",1,"below","? >> grammatical","condition 3 >> condition 1",7745,118735,10
257,"f09_1_2","f09",1,2,"control","unrelated","SUBJ OBJ",1,"above","SUBJ OBJ >> *OBJ SUBJ","condition 1 >> condition 2",11814,139713,12
257,"f43_1_2","f43",1,2,"attention","unrelated (pseudo_manner)","grammatical",1,"below","* >> grammatical","condition 2 >> condition 1",16361,167281,14
257,"f01_1_2","f01",1,2,"control","related","SUBJ OBJfix",1,"below","*OBJfix SUBJ >> SUBJ OBJfix","condition 2 >> condition 1",8557,175840,15
257,"f34_1_3","f34",1,3,"filler","unrelated (pseudo_TEMP/CC)","grammatical",1,"below","? >> grammatical","condition 3 >> condition 1",11050,186892,16
257,"f13_1_2","f13",1,2,"control","unrelated","SUBJ OBJ",1,"above","SUBJ OBJ >> *OBJ SUBJ","condition 1 >> condition 2",6849,193743,17
257,"f30_1_3","f30",1,3,"filler","pseudo_manner/COM","grammatical",1,"below","? >> grammatical","condition 3 >> condition 1",14504,208248,18
257,"f16_1_2","f16",1,2,"control","unrelated","SUBJ OBJ",1,"below","*OBJ SUBJ >> SUBJ OBJ","condition 2 >> condition 1",7782,228085,20
257,"f26_1_2","f26",1,2,"attention","pseudo_windef/TEMP","grammatical",1,"above","grammatical >> *","condition 1 >> condition 2",11464,254561,22
257,"f17_1_2","f17",1,2,"control","related","grammatical",1,"below","* >> grammatical","condition 2 >> condition 1",4649,271167,24
257,"f37_1_2","f37",1,2,"attention","pseudo_COM/manner","grammatical",1,"above","grammatical >> *","condition 1 >> condition 2",17793,288963,25
257,"f15_1_2","f15",1,2,"control","unrelated","SUBJ OBJ",1,"above","SUBJ OBJ >> *OBJ SUBJ","condition 1 >> condition 2",6735,305860,27
257,"f21_1_3","f21",1,3,"filler","pseudo_windef","grammatical",1,"above","grammatical >> ?","condition 1 >> condition 3",9645,323072,29
257,"f03_1_2","f03",1,2,"control","related","SUBJ OBJfix",1,"below","*OBJfix SUBJ >> SUBJ OBJfix","condition 2 >> condition 1",7694,330771,30
257,"f47_1_3","f47",1,3,"filler","unrelated","grammatical",1,"above","grammatical >> ?","condition 1 >> condition 3",10212,340988,31
257,"f07_1_2","f07",1,2,"control","related","SUBJ OBJfix",1,"below","*OBJfix SUBJ >> SUBJ OBJfix","condition 2 >> condition 1",7110,361745,33
257,"f31_1_3","f31",1,3,"filler","unrelated","grammatical",1,"above","grammatical >> ?","condition 1 >> condition 3",9771,371517,34
257,"f04_1_2","f04",1,2,"control","related","SUBJ OBJfix",1,"above","SUBJ OBJfix >> *OBJfix SUBJ","condition 1 >> condition 2",7442,387358,36
257,"f44_1_3","f44",1,3,"filler","unrelated","grammatical",1,"above","grammatical >> ?","condition 1 >> condition 3",8181,404128,38
257,"f19_1_2","f19",1,2,"control","related","grammatical",1,"below","* >> grammatical","condition 2 >> condition 1",7347,411476,39
257,"f32_1_2","f32",1,2,"filler","unrelated (pseudo_TEMP)","grammatical",1,"above","grammatical >> *","condition 1 >> condition 2",7462,418942,40
257,"f08_1_2","f08",1,2,"control","related","SUBJ OBJfix",1,"above","SUBJ OBJfix >> *OBJfix SUBJ","condition 1 >> condition 2",7520,426466,41
257,"f33_1_3","f33",1,3,"filler","unrelated (pseudo_TEMP)","grammatical",1,"below","? >> grammatical","condition 3 >> condition 1",6705,440898,43
257,"f11_1_2","f11",1,2,"control","unrelated","SUBJ OBJ",1,"below","*OBJ SUBJ >> SUBJ OBJ","condition 2 >> condition 1",6304,456157,45
257,"f25_1_3","f25",1,3,"filler","pseudo_windef","grammatical",1,"below","? >> grammatical","condition 3 >> condition 1",5446,461606,46
257,"f02_1_2","f02",1,2,"control","related","SUBJ OBJfix",1,"above","SUBJ OBJfix >> *OBJfix SUBJ","condition 1 >> condition 2",7275,478723,48
257,"f41_1_3","f41",1,3,"filler","unrelated (pseudo_CC)","grammatical",1,"above","grammatical >> ?","condition 1 >> condition 3",9441,495318,50
257,"f14_1_2","f14",1,2,"control","unrelated","SUBJ OBJ",1,"below","*OBJ SUBJ >> SUBJ OBJ","condition 2 >> condition 1",5631,510797,52
257,"f24_1_2","f24",1,2,"attention","pseudo_windef","grammatical",1,"above","grammatical >> *","condition 1 >> condition 2",10358,529522,54
257,"f12_1_2","f12",1,2,"control","unrelated","SUBJ OBJ",1,"above","SUBJ OBJ >> *OBJ SUBJ","condition 1 >> condition 2",7575,546641,56
257,"f27_1_3","f27",1,3,"filler","pseudo_windef/CC","grammatical",1,"below","? >> grammatical","condition 3 >> condition 1",7642,565726,58
257,"f10_1_2","f10",1,2,"control","unrelated","SUBJ OBJ",1,"above","SUBJ OBJ >> *OBJ SUBJ","condition 1 >> condition 2",9563,575291,59
257,"f35_1_3","f35",1,3,"filler","unrelated","grammatical",1,"below","? >> grammatical","condition 3 >> condition 1",10937,600655,61
257,"f05_1_2","f05",1,2,"control","related","SUBJ OBJfix",1,"above","SUBJ OBJfix >> *OBJfix SUBJ","condition 1 >> condition 2",5438,606096,62
257,"f42_1_3","f42",1,3,"filler","unrelated (pseudo_manner)","grammatical",1,"above","grammatical >> ?","condition 1 >> condition 3",13901,619999,63
257,"f06_1_2","f06",1,2,"control","related","SUBJ OBJfix",1,"below","*OBJfix SUBJ >> SUBJ OBJfix","condition 2 >> condition 1",6881,637239,65
257,"f40_1_3","f40",1,3,"filler","unrelated (pseudo_TEMP)","grammatical",1,"below","? >> grammatical","condition 3 >> condition 1",8818,646059,66
257,"f18_1_2","f18",1,2,"control","unrelated","grammatical",1,"above","grammatical >> *","condition 1 >> condition 2",9833,663989,68
257,"f48_1_2","f48",1,2,"attention","unrelated","grammatical",1,"below","* >> grammatical","condition 2 >> condition 1",15297,679289,69
257,"f22_1_2","f22",1,2,"attention","pseudo_windef","grammatical",1,"above","grammatical >> *","condition 1 >> condition 2",15053,704198,71
256,"f29_1_2","f29",1,2,"calibration","unrelated","grammatical",1,"above","grammatical >> *","condition 1 >> condition 2",7781,7785,0
256,"f23_1_2","f23",1,2,"calibration","pseudo_windef","grammatical",1,"above","grammatical >> *","condition 1 >> condition 2",9629,17418,1
256,"f28_1_3","f28",1,3,"calibration","unrelated","grammatical",1,"above","grammatical >> ?","condition 1 >> condition 3",8668,26089,2
256,"f36_1_3","f36",1,3,"calibration","unrelated","grammatical",1,"above","grammatical >> ?","condition 1 >> condition 3",6838,32929,3
256,"f38_1_3","f38",1,3,"calibration","unrelated","grammatical",1,"above","grammatical >> ?","condition 1 >> condition 3",8538,41470,4
256,"f45_1_3","f45",1,3,"calibration","unrelated","grammatical",1,"above","grammatical >> ?","condition 1 >> condition 3",12532,54004,5
256,"f25_1_3","f25",1,3,"filler","pseudo_windef","grammatical",1,"below","? >> grammatical","condition 3 >> condition 1",11138,65145,6
256,"f01_1_2","f01",1,2,"control","related","SUBJ OBJfix",1,"below","*OBJfix SUBJ >> SUBJ OBJfix","condition 2 >> condition 1",6116,71263,7
256,"f34_1_3","f34",1,3,"filler","unrelated (pseudo_TEMP/CC)","grammatical",1,"above","grammatical >> ?","condition 1 >> condition 3",12394,92239,9
256,"f06_1_2","f06",1,2,"control","related","SUBJ OBJfix",1,"below","*OBJfix SUBJ >> SUBJ OBJfix","condition 2 >> condition 1",4037,96278,10
256,"f39_1_2","f39",1,2,"filler","pseudo_manner/INSTR","grammatical",1,"above","grammatical >> *","condition 1 >> condition 2",8664,104944,11
256,"f14_1_2","f14",1,2,"control","unrelated","SUBJ OBJ",1,"above","SUBJ OBJ >> *OBJ SUBJ","condition 1 >> condition 2",7211,120997,13
256,"f43_1_2","f43",1,2,"attention","unrelated (pseudo_manner)","grammatical",1,"above","grammatical >> *","condition 1 >> condition 2",18048,139048,14
256,"f20_1_2","f20",1,2,"control","unrelated","grammatical",1,"below","* >> grammatical","condition 2 >> condition 1",12228,165687,16
256,"f42_1_3","f42",1,3,"filler","unrelated (pseudo_manner)","grammatical",1,"below","? >> grammatical","condition 3 >> condition 1",6516,172204,17
256,"f03_1_2","f03",1,2,"control","related","SUBJ OBJfix",1,"above","SUBJ OBJfix >> *OBJfix SUBJ","condition 1 >> condition 2",7094,185343,19
256,"f30_1_3","f30",1,3,"filler","pseudo_manner/COM","grammatical",1,"below","? >> grammatical","condition 3 >> condition 1",17978,212137,21
256,"f15_1_2","f15",1,2,"control","unrelated","SUBJ OBJ",1,"below","*OBJ SUBJ >> SUBJ OBJ","condition 2 >> condition 1",6742,226284,23
256,"f26_1_2","f26",1,2,"attention","pseudo_windef/TEMP","grammatical",1,"above","grammatical >> *","condition 1 >> condition 2",11312,237599,24
256,"f07_1_2","f07",1,2,"control","related","SUBJ OBJfix",1,"above","SUBJ OBJfix >> *OBJfix SUBJ","condition 1 >> condition 2",17161,262222,26
256,"f24_1_2","f24",1,2,"attention","pseudo_windef","grammatical",1,"above","grammatical >> *","condition 1 >> condition 2",9380,290497,28
256,"f08_1_2","f08",1,2,"control","related","SUBJ OBJfix",1,"below","*OBJfix SUBJ >> SUBJ OBJfix","condition 2 >> condition 1",15840,306339,29
256,"f44_1_3","f44",1,3,"filler","unrelated","grammatical",1,"below","? >> grammatical","condition 3 >> condition 1",8017,325117,31
256,"f11_1_2","f11",1,2,"control","unrelated","SUBJ OBJ",1,"below","*OBJ SUBJ >> SUBJ OBJ","condition 2 >> condition 1",3468,328587,32
256,"f27_1_3","f27",1,3,"filler","pseudo_windef/CC","grammatical",1,"below","? >> grammatical","condition 3 >> condition 1",5568,334156,33
256,"f02_1_2","f02",1,2,"control","related","SUBJ OBJfix",1,"below","*OBJfix SUBJ >> SUBJ OBJfix","condition 2 >> condition 1",9399,343557,34
256,"f31_1_3","f31",1,3,"filler","unrelated","grammatical",1,"above","grammatical >> ?","condition 1 >> condition 3",9512,353071,35
256,"f19_1_2","f19",1,2,"control","related","grammatical",1,"below","* >> grammatical","condition 2 >> condition 1",8265,375775,37
256,"f21_1_3","f21",1,3,"filler","pseudo_windef","grammatical",1,"below","? >> grammatical","condition 3 >> condition 1",4116,387010,39
256,"f16_1_2","f16",1,2,"control","unrelated","SUBJ OBJ",1,"above","SUBJ OBJ >> *OBJ SUBJ","condition 1 >> condition 2",5407,392418,40
256,"f41_1_3","f41",1,3,"filler","unrelated (pseudo_CC)","grammatical",1,"above","grammatical >> ?","condition 1 >> condition 3",7325,408450,42
256,"f17_1_2","f17",1,2,"control","related","grammatical",1,"below","* >> grammatical","condition 2 >> condition 1",5206,418626,44
256,"f40_1_3","f40",1,3,"filler","unrelated (pseudo_TEMP)","grammatical",1,"below","? >> grammatical","condition 3 >> condition 1",49101,467729,45
256,"f09_1_2","f09",1,2,"control","unrelated","SUBJ OBJ",1,"above","SUBJ OBJ >> *OBJ SUBJ","condition 1 >> condition 2",5158,481829,47
256,"f37_1_2","f37",1,2,"attention","pseudo_COM/manner","*",2,"above","* >> grammatical","condition 2 >> condition 1",22763,509195,49
256,"f04_1_2","f04",1,2,"control","related","SUBJ OBJfix",1,"below","*OBJfix SUBJ >> SUBJ OBJfix","condition 2 >> condition 1",4455,513652,50
256,"f35_1_3","f35",1,3,"filler","unrelated","grammatical",1,"below","? >> grammatical","condition 3 >> condition 1",5276,518931,51
256,"f10_1_2","f10",1,2,"control","unrelated","SUBJ OBJ",1,"above","SUBJ OBJ >> *OBJ SUBJ","condition 1 >> condition 2",4566,529444,53
256,"f32_1_2","f32",1,2,"filler","unrelated (pseudo_TEMP)","grammatical",1,"below","* >> grammatical","condition 2 >> condition 1",5756,545584,55
256,"f13_1_2","f13",1,2,"control","unrelated","SUBJ OBJ",1,"below","*OBJ SUBJ >> SUBJ OBJ","condition 2 >> condition 1",5196,558432,57
256,"f22_1_2","f22",1,2,"attention","pseudo_windef","grammatical",1,"above","grammatical >> *","condition 1 >> condition 2",12533,579897,59
256,"f18_1_2","f18",1,2,"control","unrelated","grammatical",1,"below","* >> grammatical","condition 2 >> condition 1",17247,597146,60
256,"f46_1_3","f46",1,3,"filler","unrelated","grammatical",1,"below","? >> grammatical","condition 3 >> condition 1",5951,610431,62
256,"f05_1_2","f05",1,2,"control","related","SUBJ OBJfix",1,"above","SUBJ OBJfix >> *OBJfix SUBJ","condition 1 >> condition 2",4117,614551,63
256,"f33_1_3","f33",1,3,"filler","unrelated (pseudo_TEMP)","grammatical",1,"above","grammatical >> ?","condition 1 >> condition 3",6988,629871,65
256,"f12_1_2","f12",1,2,"control","unrelated","SUBJ OBJ",1,"below","*OBJ SUBJ >> SUBJ OBJ","condition 2 >> condition 1",9967,646429,67
256,"f48_1_2","f48",1,2,"attention","unrelated","grammatical",1,"below","* >> grammatical","condition 2 >> condition 1",9379,662251,69
256,"f47_1_3","f47",1,3,"filler","unrelated","grammatical",1,"below","? >> grammatical","condition 3 >> condition 1",5572,674648,71
254,"f38_1_3","f38",1,3,"calibration","unrelated","grammatical",1,"above","grammatical >> ?","condition 1 >> condition 3",17548,17549,0
254,"f23_1_2","f23",1,2,"calibration","pseudo_windef","grammatical",1,"above","grammatical >> *","condition 1 >> condition 2",11777,29329,1
254,"f45_1_3","f45",1,3,"calibration","unrelated","grammatical",1,"above","grammatical >> ?","condition 1 >> condition 3",20362,49691,2
254,"f36_1_3","f36",1,3,"calibration","unrelated","grammatical",1,"below","? >> grammatical","condition 3 >> condition 1",8454,58147,3
254,"f28_1_3","f28",1,3,"calibration","unrelated","grammatical",1,"below","? >> grammatical","condition 3 >> condition 1",9173,67320,4
254,"f29_1_2","f29",1,2,"calibration","unrelated","grammatical",1,"above","grammatical >> *","condition 1 >> condition 2",9075,76396,5
254,"f37_1_2","f37",1,2,"attention","pseudo_COM/manner","grammatical",1,"below","* >> grammatical","condition 2 >> condition 1",16650,93047,6
254,"f05_1_2","f05",1,2,"control","related","SUBJ OBJfix",1,"above","SUBJ OBJfix >> *OBJfix SUBJ","condition 1 >> condition 2",15301,108348,7
254,"f41_1_3","f41",1,3,"filler","unrelated (pseudo_CC)","grammatical",1,"below","? >> grammatical","condition 3 >> condition 1",23467,151046,9
254,"f02_1_2","f02",1,2,"control","related","SUBJ OBJfix",1,"below","*OBJfix SUBJ >> SUBJ OBJfix","condition 2 >> condition 1",11164,177454,11
254,"f25_1_3","f25",1,3,"filler","pseudo_windef","grammatical",1,"below","? >> grammatical","condition 3 >> condition 1",32593,210049,12
254,"f10_1_2","f10",1,2,"control","unrelated","SUBJ OBJ",1,"below","*OBJ SUBJ >> SUBJ OBJ","condition 2 >> condition 1",6845,231464,14
254,"f43_1_2","f43",1,2,"attention","unrelated (pseudo_manner)","grammatical",1,"above","grammatical >> *","condition 1 >> condition 2",11230,242695,15
254,"f13_1_2","f13",1,2,"control","unrelated","SUBJ OBJ",1,"below","*OBJ SUBJ >> SUBJ OBJ","condition 2 >> condition 1",5944,255807,17
254,"f48_1_2","f48",1,2,"attention","unrelated","grammatical",1,"above","grammatical >> *","condition 1 >> condition 2",10979,295879,19
254,"f07_1_2","f07",1,2,"control","related","SUBJ OBJfix",1,"above","SUBJ OBJfix >> *OBJfix SUBJ","condition 1 >> condition 2",9733,305612,20
254,"f31_1_3","f31",1,3,"filler","unrelated","grammatical",1,"above","grammatical >> ?","condition 1 >> condition 3",12549,333242,22
254,"f20_1_2","f20",1,2,"control","unrelated","grammatical",1,"above","grammatical >> *","condition 1 >> condition 2",6608,339851,23
254,"f26_1_2","f26",1,2,"attention","pseudo_windef/TEMP","grammatical",1,"below","* >> grammatical","condition 2 >> condition 1",34871,404188,25
254,"f17_1_2","f17",1,2,"control","related","grammatical",1,"below","* >> grammatical","condition 2 >> condition 1",6113,421202,27
254,"f30_1_3","f30",1,3,"filler","pseudo_manner/COM","grammatical",1,"below","? >> grammatical","condition 3 >> condition 1",16133,456544,29
254,"f14_1_2","f14",1,2,"control","unrelated","SUBJ OBJ",1,"above","SUBJ OBJ >> *OBJ SUBJ","condition 1 >> condition 2",6027,469644,31
254,"f24_1_2","f24",1,2,"attention","pseudo_windef","grammatical",1,"above","grammatical >> *","condition 1 >> condition 2",6781,476426,32
254,"f16_1_2","f16",1,2,"control","unrelated","SUBJ OBJ",1,"above","SUBJ OBJ >> *OBJ SUBJ","condition 1 >> condition 2",9751,486178,33
254,"f33_1_3","f33",1,3,"filler","unrelated (pseudo_TEMP)","grammatical",1,"above","grammatical >> ?","condition 1 >> condition 3",12018,512978,35
254,"f01_1_2","f01",1,2,"control","related","SUBJ OBJfix",1,"above","SUBJ OBJfix >> *OBJfix SUBJ","condition 1 >> condition 2",6435,519414,36
254,"f40_1_3","f40",1,3,"filler","unrelated (pseudo_TEMP)","grammatical",1,"above","grammatical >> ?","condition 1 >> condition 3",12406,540818,38
254,"f09_1_2","f09",1,2,"control","unrelated","SUBJ OBJ",1,"below","*OBJ SUBJ >> SUBJ OBJ","condition 2 >> condition 1",5313,563204,40
254,"f22_1_2","f22",1,2,"attention","pseudo_windef","grammatical",1,"below","* >> grammatical","condition 2 >> condition 1",7253,581066,42
254,"f04_1_2","f04",1,2,"control","related","SUBJ OBJfix",1,"below","*OBJfix SUBJ >> SUBJ OBJfix","condition 2 >> condition 1",10219,638882,44
254,"f35_1_3","f35",1,3,"filler","unrelated","grammatical",1,"below","? >> grammatical","condition 3 >> condition 1",5579,644462,45
254,"f11_1_2","f11",1,2,"control","unrelated","SUBJ OBJ",1,"above","SUBJ OBJ >> *OBJ SUBJ","condition 1 >> condition 2",6641,651104,46
254,"f46_1_3","f46",1,3,"filler","unrelated","grammatical",1,"above","grammatical >> ?","condition 1 >> condition 3",12987,674084,48
254,"f19_1_2","f19",1,2,"control","related","grammatical",1,"below","* >> grammatical","condition 2 >> condition 1",12438,686522,49
254,"f42_1_3","f42",1,3,"filler","unrelated (pseudo_manner)","?",3,"below","grammatical >> ?","condition 1 >> condition 3",13887,712350,51
254,"f03_1_2","f03",1,2,"control","related","SUBJ OBJfix",1,"below","*OBJfix SUBJ >> SUBJ OBJfix","condition 2 >> condition 1",14630,733236,53
254,"f27_1_3","f27",1,3,"filler","pseudo_windef/CC","grammatical",1,"above","grammatical >> ?","condition 1 >> condition 3",7617,749780,55
254,"f08_1_2","f08",1,2,"control","related","SUBJ OBJfix",1,"above","SUBJ OBJfix >> *OBJfix SUBJ","condition 1 >> condition 2",6841,771826,57
254,"f39_1_2","f39",1,2,"filler","pseudo_manner/INSTR","grammatical",1,"below","* >> grammatical","condition 2 >> condition 1",11431,783258,58
254,"f18_1_2","f18",1,2,"control","unrelated","grammatical",1,"above","grammatical >> *","condition 1 >> condition 2",20228,803486,59
254,"f34_1_3","f34",1,3,"filler","unrelated (pseudo_TEMP/CC)","grammatical",1,"below","? >> grammatical","condition 3 >> condition 1",10823,842114,61
254,"f15_1_2","f15",1,2,"control","unrelated","SUBJ OBJ",1,"above","SUBJ OBJ >> *OBJ SUBJ","condition 1 >> condition 2",20193,862308,62
254,"f21_1_3","f21",1,3,"filler","pseudo_windef","grammatical",1,"below","? >> grammatical","condition 3 >> condition 1",7912,870222,63
254,"f12_1_2","f12",1,2,"control","unrelated","SUBJ OBJ",1,"above","SUBJ OBJ >> *OBJ SUBJ","condition 1 >> condition 2",9515,888542,65
254,"f47_1_3","f47",1,3,"filler","unrelated","grammatical",1,"below","? >> grammatical","condition 3 >> condition 1",7195,909328,67
254,"f06_1_2","f06",1,2,"control","related","SUBJ OBJfix",1,"below","*OBJfix SUBJ >> SUBJ OBJfix","condition 2 >> condition 1",10113,919442,68
254,"f32_1_2","f32",1,2,"filler","unrelated (pseudo_TEMP)","grammatical",1,"above","grammatical >> *","condition 1 >> condition 2",7685,935566,70
254,"f44_1_3","f44",1,3,"filler","unrelated","grammatical",1,"above","grammatical >> ?","condition 1 >> condition 3",6864,942430,71
253,"f29_1_2","f29",1,2,"calibration","unrelated","grammatical",1,"above","grammatical >> *","condition 1 >> condition 2",8194,8206,0
253,"f28_1_3","f28",1,3,"calibration","unrelated","grammatical",1,"below","? >> grammatical","condition 3 >> condition 1",7386,15598,1
253,"f45_1_3","f45",1,3,"calibration","unrelated","grammatical",1,"below","? >> grammatical","condition 3 >> condition 1",6826,22428,2
253,"f23_1_2","f23",1,2,"calibration","pseudo_windef","grammatical",1,"above","grammatical >> *","condition 1 >> condition 2",8611,31044,3
253,"f36_1_3","f36",1,3,"calibration","unrelated","grammatical",1,"above","grammatical >> ?","condition 1 >> condition 3",6038,37084,4
253,"f38_1_3","f38",1,3,"calibration","unrelated","grammatical",1,"above","grammatical >> ?","condition 1 >> condition 3",35182,72269,5
253,"f47_1_3","f47",1,3,"filler","unrelated","grammatical",1,"above","grammatical >> ?","condition 1 >> condition 3",11910,95549,7
253,"f13_1_2","f13",1,2,"control","unrelated","SUBJ OBJ",1,"below","*OBJ SUBJ >> SUBJ OBJ","condition 2 >> condition 1",5405,111077,9
253,"f48_1_2","f48",1,2,"attention","unrelated","grammatical",1,"above","grammatical >> *","condition 1 >> condition 2",19758,154548,11
253,"f09_1_2","f09",1,2,"control","unrelated","SUBJ OBJ",1,"above","SUBJ OBJ >> *OBJ SUBJ","condition 1 >> condition 2",5901,168716,13
253,"f30_1_3","f30",1,3,"filler","pseudo_manner/COM","grammatical",1,"above","grammatical >> ?","condition 1 >> condition 3",10335,186493,15
253,"f11_1_2","f11",1,2,"control","unrelated","SUBJ OBJ",1,"above","SUBJ OBJ >> *OBJ SUBJ","condition 1 >> condition 2",7382,193877,16
253,"f21_1_3","f21",1,3,"filler","pseudo_windef","grammatical",1,"below","? >> grammatical","condition 3 >> condition 1",7781,214389,18
253,"f12_1_2","f12",1,2,"control","unrelated","SUBJ OBJ",1,"above","SUBJ OBJ >> *OBJ SUBJ","condition 1 >> condition 2",7086,221478,19
253,"f40_1_3","f40",1,3,"filler","unrelated (pseudo_TEMP)","grammatical",1,"above","grammatical >> ?","condition 1 >> condition 3",7715,229197,20
253,"f02_1_2","f02",1,2,"control","related","SUBJ OBJfix",1,"below","*OBJfix SUBJ >> SUBJ OBJfix","condition 2 >> condition 1",7214,248221,22
253,"f42_1_3","f42",1,3,"filler","unrelated (pseudo_manner)","grammatical",1,"below","? >> grammatical","condition 3 >> condition 1",7031,255254,23
253,"f03_1_2","f03",1,2,"control","related","SUBJ OBJfix",1,"below","*OBJfix SUBJ >> SUBJ OBJfix","condition 2 >> condition 1",7267,269325,25
253,"f32_1_2","f32",1,2,"filler","unrelated (pseudo_TEMP)","grammatical",1,"above","grammatical >> *","condition 1 >> condition 2",11219,288437,27
253,"f07_1_2","f07",1,2,"control","related","SUBJ OBJfix",1,"below","*OBJfix SUBJ >> SUBJ OBJfix","condition 2 >> condition 1",9214,307508,29
253,"f37_1_2","f37",1,2,"attention","pseudo_COM/manner","grammatical",1,"below","* >> grammatical","condition 2 >> condition 1",15440,330566,31
253,"f17_1_2","f17",1,2,"control","related","grammatical",1,"below","* >> grammatical","condition 2 >> condition 1",3003,350205,33
253,"f39_1_2","f39",1,2,"filler","pseudo_manner/INSTR","grammatical",1,"below","* >> grammatical","condition 2 >> condition 1",11197,367413,35
253,"f18_1_2","f18",1,2,"control","unrelated","grammatical",1,"above","grammatical >> *","condition 1 >> condition 2",6380,383295,37
253,"f44_1_3","f44",1,3,"filler","unrelated","grammatical",1,"above","grammatical >> ?","condition 1 >> condition 3",8371,399733,39
253,"f06_1_2","f06",1,2,"control","related","SUBJ OBJfix",1,"above","SUBJ OBJfix >> *OBJfix SUBJ","condition 1 >> condition 2",11662,411397,40
253,"f35_1_3","f35",1,3,"filler","unrelated","grammatical",1,"above","grammatical >> ?","condition 1 >> condition 3",21476,443420,42
253,"f16_1_2","f16",1,2,"control","unrelated","SUBJ OBJ",1,"below","*OBJ SUBJ >> SUBJ OBJ","condition 2 >> condition 1",4822,454868,44
253,"f26_1_2","f26",1,2,"attention","pseudo_windef/TEMP","grammatical",1,"below","* >> grammatical","condition 2 >> condition 1",10270,465140,45
253,"f19_1_2","f19",1,2,"control","related","grammatical",1,"above","grammatical >> *","condition 1 >> condition 2",17453,489277,47
253,"f41_1_3","f41",1,3,"filler","unrelated (pseudo_CC)","grammatical",1,"below","? >> grammatical","condition 3 >> condition 1",11239,500519,48
253,"f08_1_2","f08",1,2,"control","related","SUBJ OBJfix",1,"below","*OBJfix SUBJ >> SUBJ OBJfix","condition 2 >> condition 1",7423,514029,50
253,"f43_1_2","f43",1,2,"attention","unrelated (pseudo_manner)","*",2,"below","grammatical >> *","condition 1 >> condition 2",9510,523542,51
253,"f04_1_2","f04",1,2,"control","related","SUBJ OBJfix",1,"above","SUBJ OBJfix >> *OBJfix SUBJ","condition 1 >> condition 2",7245,530788,52
253,"f25_1_3","f25",1,3,"filler","pseudo_windef","grammatical",1,"above","grammatical >> ?","condition 1 >> condition 3",8782,547172,54
253,"f20_1_2","f20",1,2,"control","unrelated","grammatical",1,"below","* >> grammatical","condition 2 >> condition 1",6239,553413,55
253,"f34_1_3","f34",1,3,"filler","unrelated (pseudo_TEMP/CC)","grammatical",1,"above","grammatical >> ?","condition 1 >> condition 3",8103,561518,56
253,"f14_1_2","f14",1,2,"control","unrelated","SUBJ OBJ",1,"below","*OBJ SUBJ >> SUBJ OBJ","condition 2 >> condition 1",5989,567509,57
253,"f46_1_3","f46",1,3,"filler","unrelated","?",3,"below","grammatical >> ?","condition 1 >> condition 3",8838,576349,58
253,"f15_1_2","f15",1,2,"control","unrelated","SUBJ OBJ",1,"below","*OBJ SUBJ >> SUBJ OBJ","condition 2 >> condition 1",7943,591365,60
253,"f31_1_3","f31",1,3,"filler","unrelated","grammatical",1,"above","grammatical >> ?","condition 1 >> condition 3",39623,630990,61
253,"f05_1_2","f05",1,2,"control","related","SUBJ OBJfix",1,"above","SUBJ OBJfix >> *OBJfix SUBJ","condition 1 >> condition 2",5867,645125,63
253,"f24_1_2","f24",1,2,"attention","pseudo_windef","grammatical",1,"above","grammatical >> *","condition 1 >> condition 2",8031,658877,65
253,"f10_1_2","f10",1,2,"control","unrelated","SUBJ OBJ",1,"below","*OBJ SUBJ >> SUBJ OBJ","condition 2 >> condition 1",5127,664006,66
253,"f27_1_3","f27",1,3,"filler","pseudo_windef/CC","grammatical",1,"above","grammatical >> ?","condition 1 >> condition 3",7021,671029,67
253,"f01_1_2","f01",1,2,"control","related","SUBJ OBJfix",1,"above","SUBJ OBJfix >> *OBJfix SUBJ","condition 1 >> condition 2",6943,677973,68
253,"f33_1_3","f33",1,3,"filler","unrelated (pseudo_TEMP)","grammatical",1,"below","? >> grammatical","condition 3 >> condition 1",11569,699949,70
253,"f22_1_2","f22",1,2,"attention","pseudo_windef","grammatical",1,"below","* >> grammatical","condition 2 >> condition 1",18558,718509,71
249,"f38_1_3","f38",1,3,"calibration","unrelated","grammatical",1,"above","grammatical >> ?","condition 1 >> condition 3",11917,11922,0
249,"f36_1_3","f36",1,3,"calibration","unrelated","grammatical",1,"below","? >> grammatical","condition 3 >> condition 1",3931,15857,1
249,"f23_1_2","f23",1,2,"calibration","pseudo_windef","grammatical",1,"above","grammatical >> *","condition 1 >> condition 2",10949,26808,2
249,"f29_1_2","f29",1,2,"calibration","unrelated","grammatical",1,"above","grammatical >> *","condition 1 >> condition 2",12830,39641,3
249,"f28_1_3","f28",1,3,"calibration","unrelated","grammatical",1,"above","grammatical >> ?","condition 1 >> condition 3",9020,48665,4
249,"f45_1_3","f45",1,3,"calibration","unrelated","grammatical",1,"below","? >> grammatical","condition 3 >> condition 1",6527,55193,5
249,"f48_1_2","f48",1,2,"attention","unrelated","grammatical",1,"above","grammatical >> *","condition 1 >> condition 2",19263,102449,7
249,"f15_1_2","f15",1,2,"control","unrelated","SUBJ OBJ",1,"above","SUBJ OBJ >> *OBJ SUBJ","condition 1 >> condition 2",11790,134265,9
249,"f32_1_2","f32",1,2,"filler","unrelated (pseudo_TEMP)","grammatical",1,"above","grammatical >> *","condition 1 >> condition 2",9319,143585,10
249,"f19_1_2","f19",1,2,"control","related","grammatical",1,"below","* >> grammatical","condition 2 >> condition 1",8846,177193,12
249,"f37_1_2","f37",1,2,"attention","pseudo_COM/manner","grammatical",1,"above","grammatical >> *","condition 1 >> condition 2",22742,199936,13
249,"f01_1_2","f01",1,2,"control","related","SUBJ OBJfix",1,"below","*OBJfix SUBJ >> SUBJ OBJfix","condition 2 >> condition 1",6253,218040,15
249,"f40_1_3","f40",1,3,"filler","unrelated (pseudo_TEMP)","grammatical",1,"above","grammatical >> ?","condition 1 >> condition 3",9670,227712,16
249,"f18_1_2","f18",1,2,"control","unrelated","grammatical",1,"above","grammatical >> *","condition 1 >> condition 2",12749,264329,18
249,"f30_1_3","f30",1,3,"filler","pseudo_manner/COM","grammatical",1,"below","? >> grammatical","condition 3 >> condition 1",13380,285474,20
249,"f04_1_2","f04",1,2,"control","related","SUBJ OBJfix",1,"above","SUBJ OBJfix >> *OBJfix SUBJ","condition 1 >> condition 2",13550,299025,21
249,"f47_1_3","f47",1,3,"filler","unrelated","grammatical",1,"above","grammatical >> ?","condition 1 >> condition 3",20364,327840,23
249,"f03_1_2","f03",1,2,"control","related","SUBJ OBJfix",1,"above","SUBJ OBJfix >> *OBJfix SUBJ","condition 1 >> condition 2",9982,337825,24
249,"f31_1_3","f31",1,3,"filler","unrelated","grammatical",1,"above","grammatical >> ?","condition 1 >> condition 3",8709,367777,26
249,"f10_1_2","f10",1,2,"control","unrelated","SUBJ OBJ",1,"above","SUBJ OBJ >> *OBJ SUBJ","condition 1 >> condition 2",9367,377145,27
249,"f42_1_3","f42",1,3,"filler","unrelated (pseudo_manner)","grammatical",1,"below","? >> grammatical","condition 3 >> condition 1",7646,384793,28
249,"f08_1_2","f08",1,2,"control","related","SUBJ OBJfix",1,"above","SUBJ OBJfix >> *OBJfix SUBJ","condition 1 >> condition 2",7303,404265,30
249,"f35_1_3","f35",1,3,"filler","unrelated","grammatical",1,"below","? >> grammatical","condition 3 >> condition 1",10350,425033,32
249,"f11_1_2","f11",1,2,"control","unrelated","SUBJ OBJ",1,"below","*OBJ SUBJ >> SUBJ OBJ","condition 2 >> condition 1",4899,440561,34
249,"f22_1_2","f22",1,2,"attention","pseudo_windef","grammatical",1,"below","* >> grammatical","condition 2 >> condition 1",8222,448785,35
249,"f05_1_2","f05",1,2,"control","related","SUBJ OBJfix",1,"above","SUBJ OBJfix >> *OBJfix SUBJ","condition 1 >> condition 2",7670,469793,37
249,"f39_1_2","f39",1,2,"filler","pseudo_manner/INSTR","grammatical",1,"above","grammatical >> *","condition 1 >> condition 2",20351,490146,38
249,"f14_1_2","f14",1,2,"control","unrelated","SUBJ OBJ",1,"below","*OBJ SUBJ >> SUBJ OBJ","condition 2 >> condition 1",7702,514337,40
249,"f34_1_3","f34",1,3,"filler","unrelated (pseudo_TEMP/CC)","grammatical",1,"below","? >> grammatical","condition 3 >> condition 1",23350,537689,41
249,"f07_1_2","f07",1,2,"control","related","SUBJ OBJfix",1,"below","*OBJfix SUBJ >> SUBJ OBJfix","condition 2 >> condition 1",7318,545010,42
249,"f43_1_2","f43",1,2,"attention","unrelated (pseudo_manner)","grammatical",1,"below","* >> grammatical","condition 2 >> condition 1",16134,561145,43
249,"f09_1_2","f09",1,2,"control","unrelated","SUBJ OBJ",1,"above","SUBJ OBJ >> *OBJ SUBJ","condition 1 >> condition 2",11285,572433,44
249,"f24_1_2","f24",1,2,"attention","pseudo_windef","grammatical",1,"above","grammatical >> *","condition 1 >> condition 2",9470,590689,46
249,"f06_1_2","f06",1,2,"control","related","SUBJ OBJfix",1,"above","SUBJ OBJfix >> *OBJfix SUBJ","condition 1 >> condition 2",6830,609690,48
249,"f21_1_3","f21",1,3,"filler","pseudo_windef","grammatical",1,"above","grammatical >> ?","condition 1 >> condition 3",8420,629657,50
249,"f02_1_2","f02",1,2,"control","related","SUBJ OBJfix",1,"below","*OBJfix SUBJ >> SUBJ OBJfix","condition 2 >> condition 1",3916,651009,52
249,"f26_1_2","f26",1,2,"attention","pseudo_windef/TEMP","grammatical",1,"below","* >> grammatical","condition 2 >> condition 1",12703,663714,53
249,"f17_1_2","f17",1,2,"control","related","grammatical",1,"below","* >> grammatical","condition 2 >> condition 1",4054,676362,55
249,"f33_1_3","f33",1,3,"filler","unrelated (pseudo_TEMP)","grammatical",1,"above","grammatical >> ?","condition 1 >> condition 3",9725,686089,56
249,"f20_1_2","f20",1,2,"control","unrelated","grammatical",1,"above","grammatical >> *","condition 1 >> condition 2",10535,708673,58
249,"f25_1_3","f25",1,3,"filler","pseudo_windef","grammatical",1,"above","grammatical >> ?","condition 1 >> condition 3",13350,730161,60
249,"f13_1_2","f13",1,2,"control","unrelated","SUBJ OBJ",1,"above","SUBJ OBJ >> *OBJ SUBJ","condition 1 >> condition 2",6439,742961,62
249,"f27_1_3","f27",1,3,"filler","pseudo_windef/CC","grammatical",1,"above","grammatical >> ?","condition 1 >> condition 3",6998,749961,63
249,"f16_1_2","f16",1,2,"control","unrelated","SUBJ OBJ",1,"above","SUBJ OBJ >> *OBJ SUBJ","condition 1 >> condition 2",6118,756081,64
249,"f44_1_3","f44",1,3,"filler","unrelated","grammatical",1,"above","grammatical >> ?","condition 1 >> condition 3",7039,774506,66
249,"f12_1_2","f12",1,2,"control","unrelated","SUBJ OBJ",1,"below","*OBJ SUBJ >> SUBJ OBJ","condition 2 >> condition 1",4295,790249,68
249,"f41_1_3","f41",1,3,"filler","unrelated (pseudo_CC)","grammatical",1,"above","grammatical >> ?","condition 1 >> condition 3",10303,809401,70
249,"f46_1_3","f46",1,3,"filler","unrelated","grammatical",1,"above","grammatical >> ?","condition 1 >> condition 3",9111,818513,71
246,"f36_1_3","f36",1,3,"calibration","unrelated","grammatical",1,"above","grammatical >> ?","condition 1 >> condition 3",10011,10017,0
246,"f45_1_3","f45",1,3,"calibration","unrelated","grammatical",1,"above","grammatical >> ?","condition 1 >> condition 3",20755,30777,1
246,"f28_1_3","f28",1,3,"calibration","unrelated","grammatical",1,"below","? >> grammatical","condition 3 >> condition 1",8484,39264,2
246,"f38_1_3","f38",1,3,"calibration","unrelated","grammatical",1,"below","? >> grammatical","condition 3 >> condition 1",6966,46233,3
246,"f29_1_2","f29",1,2,"calibration","unrelated","grammatical",1,"below","* >> grammatical","condition 2 >> condition 1",4998,51234,4
246,"f23_1_2","f23",1,2,"calibration","pseudo_windef","grammatical",1,"above","grammatical >> *","condition 1 >> condition 2",6848,58084,5
246,"f47_1_3","f47",1,3,"filler","unrelated","grammatical",1,"above","grammatical >> ?","condition 1 >> condition 3",6780,64866,6
246,"f04_1_2","f04",1,2,"control","related","SUBJ OBJfix",1,"above","SUBJ OBJfix >> *OBJfix SUBJ","condition 1 >> condition 2",6828,71697,7
246,"f35_1_3","f35",1,3,"filler","unrelated","grammatical",1,"below","? >> grammatical","condition 3 >> condition 1",10733,92884,9
246,"f13_1_2","f13",1,2,"control","unrelated","SUBJ OBJ",1,"below","*OBJ SUBJ >> SUBJ OBJ","condition 2 >> condition 1",5536,98423,10
246,"f43_1_2","f43",1,2,"attention","unrelated (pseudo_manner)","grammatical",1,"above","grammatical >> *","condition 1 >> condition 2",14734,123082,12
246,"f06_1_2","f06",1,2,"control","related","SUBJ OBJfix",1,"above","SUBJ OBJfix >> *OBJfix SUBJ","condition 1 >> condition 2",8167,131252,13
246,"f39_1_2","f39",1,2,"filler","pseudo_manner/INSTR","grammatical",1,"below","* >> grammatical","condition 2 >> condition 1",6123,154796,15
246,"f17_1_2","f17",1,2,"control","related","grammatical",1,"above","grammatical >> *","condition 1 >> condition 2",10431,174132,17
246,"f44_1_3","f44",1,3,"filler","unrelated","grammatical",1,"above","grammatical >> ?","condition 1 >> condition 3",8510,182645,18
246,"f07_1_2","f07",1,2,"control","related","SUBJ OBJfix",1,"below","*OBJfix SUBJ >> SUBJ OBJfix","condition 2 >> condition 1",7490,197140,20
246,"f37_1_2","f37",1,2,"attention","pseudo_COM/manner","grammatical",1,"below","* >> grammatical","condition 2 >> condition 1",6720,203863,21
246,"f05_1_2","f05",1,2,"control","related","SUBJ OBJfix",1,"above","SUBJ OBJfix >> *OBJfix SUBJ","condition 1 >> condition 2",7187,217469,23
246,"f26_1_2","f26",1,2,"attention","pseudo_windef/TEMP","grammatical",1,"above","grammatical >> *","condition 1 >> condition 2",14022,237618,25
246,"f01_1_2","f01",1,2,"control","related","SUBJ OBJfix",1,"above","SUBJ OBJfix >> *OBJfix SUBJ","condition 1 >> condition 2",6190,252213,27
246,"f48_1_2","f48",1,2,"attention","unrelated","grammatical",1,"below","* >> grammatical","condition 2 >> condition 1",9143,261358,28
246,"f12_1_2","f12",1,2,"control","unrelated","SUBJ OBJ",1,"below","*OBJ SUBJ >> SUBJ OBJ","condition 2 >> condition 1",20007,299811,30
246,"f32_1_2","f32",1,2,"filler","unrelated (pseudo_TEMP)","grammatical",1,"below","* >> grammatical","condition 2 >> condition 1",9850,309664,31
246,"f02_1_2","f02",1,2,"control","related","SUBJ OBJfix",1,"above","SUBJ OBJfix >> *OBJfix SUBJ","condition 1 >> condition 2",7684,331533,33
246,"f31_1_3","f31",1,3,"filler","unrelated","grammatical",1,"below","? >> grammatical","condition 3 >> condition 1",6959,338495,34
246,"f14_1_2","f14",1,2,"control","unrelated","SUBJ OBJ",1,"above","SUBJ OBJ >> *OBJ SUBJ","condition 1 >> condition 2",14068,358541,36
246,"f40_1_3","f40",1,3,"filler","unrelated (pseudo_TEMP)","grammatical",1,"above","grammatical >> ?","condition 1 >> condition 3",9074,379510,38
246,"f18_1_2","f18",1,2,"control","unrelated","grammatical",1,"above","grammatical >> *","condition 1 >> condition 2",7038,386549,39
246,"f46_1_3","f46",1,3,"filler","unrelated","grammatical",1,"below","? >> grammatical","condition 3 >> condition 1",7398,402189,41
246,"f15_1_2","f15",1,2,"control","unrelated","SUBJ OBJ",1,"below","*OBJ SUBJ >> SUBJ OBJ","condition 2 >> condition 1",6566,415599,43
246,"f42_1_3","f42",1,3,"filler","unrelated (pseudo_manner)","?",3,"below","grammatical >> ?","condition 1 >> condition 3",10996,426597,44
246,"f11_1_2","f11",1,2,"control","unrelated","SUBJ OBJ",1,"below","*OBJ SUBJ >> SUBJ OBJ","condition 2 >> condition 1",4953,438932,46
246,"f21_1_3","f21",1,3,"filler","pseudo_windef","grammatical",1,"below","? >> grammatical","condition 3 >> condition 1",8466,447401,47
246,"f16_1_2","f16",1,2,"control","unrelated","SUBJ OBJ",1,"below","*OBJ SUBJ >> SUBJ OBJ","condition 2 >> condition 1",6888,461226,49
246,"f27_1_3","f27",1,3,"filler","pseudo_windef/CC","grammatical",1,"below","? >> grammatical","condition 3 >> condition 1",6251,473872,51
246,"f10_1_2","f10",1,2,"control","unrelated","SUBJ OBJ",1,"above","SUBJ OBJ >> *OBJ SUBJ","condition 1 >> condition 2",5778,479653,52
246,"f25_1_3","f25",1,3,"filler","pseudo_windef","grammatical",1,"below","? >> grammatical","condition 3 >> condition 1",7830,494154,54
246,"f20_1_2","f20",1,2,"control","unrelated","grammatical",1,"below","* >> grammatical","condition 2 >> condition 1",6718,500875,55
246,"f34_1_3","f34",1,3,"filler","unrelated (pseudo_TEMP/CC)","grammatical",1,"below","? >> grammatical","condition 3 >> condition 1",10435,517486,57
246,"f09_1_2","f09",1,2,"control","unrelated","SUBJ OBJ",1,"above","SUBJ OBJ >> *OBJ SUBJ","condition 1 >> condition 2",7610,535802,59
246,"f33_1_3","f33",1,3,"filler","unrelated (pseudo_TEMP)","grammatical",1,"above","grammatical >> ?","condition 1 >> condition 3",7847,553610,61
246,"f08_1_2","f08",1,2,"control","related","SUBJ OBJfix",1,"above","SUBJ OBJfix >> *OBJfix SUBJ","condition 1 >> condition 2",10244,571668,63
246,"f22_1_2","f22",1,2,"attention","pseudo_windef","grammatical",1,"below","* >> grammatical","condition 2 >> condition 1",6084,587366,65
246,"f03_1_2","f03",1,2,"control","related","SUBJ OBJfix",1,"above","SUBJ OBJfix >> *OBJfix SUBJ","condition 1 >> condition 2",7381,594750,66
246,"f30_1_3","f30",1,3,"filler","pseudo_manner/COM","grammatical",1,"below","? >> grammatical","condition 3 >> condition 1",9077,603831,67
246,"f19_1_2","f19",1,2,"control","related","grammatical",1,"below","* >> grammatical","condition 2 >> condition 1",7573,621469,69
246,"f24_1_2","f24",1,2,"attention","pseudo_windef","grammatical",1,"below","* >> grammatical","condition 2 >> condition 1",9382,630853,70
246,"f41_1_3","f41",1,3,"filler","unrelated (pseudo_CC)","grammatical",1,"below","? >> grammatical","condition 3 >> condition 1",8117,638972,71
244,"f45_1_3","f45",1,3,"calibration","unrelated","grammatical",1,"below","? >> grammatical","condition 3 >> condition 1",9036,9041,0
244,"f38_1_3","f38",1,3,"calibration","unrelated","grammatical",1,"above","grammatical >> ?","condition 1 >> condition 3",7737,16783,1
244,"f28_1_3","f28",1,3,"calibration","unrelated","grammatical",1,"above","grammatical >> ?","condition 1 >> condition 3",6545,23333,2
244,"f29_1_2","f29",1,2,"calibration","unrelated","grammatical",1,"below","* >> grammatical","condition 2 >> condition 1",8781,32117,3
244,"f23_1_2","f23",1,2,"calibration","pseudo_windef","grammatical",1,"above","grammatical >> *","condition 1 >> condition 2",7894,40013,4
244,"f36_1_3","f36",1,3,"calibration","unrelated","grammatical",1,"below","? >> grammatical","condition 3 >> condition 1",4797,44812,5
244,"f34_1_3","f34",1,3,"filler","unrelated (pseudo_TEMP/CC)","grammatical",1,"below","? >> grammatical","condition 3 >> condition 1",13485,72856,7
244,"f08_1_2","f08",1,2,"control","related","SUBJ OBJfix",1,"above","SUBJ OBJfix >> *OBJfix SUBJ","condition 1 >> condition 2",5596,78456,8
244,"f44_1_3","f44",1,3,"filler","unrelated","grammatical",1,"below","? >> grammatical","condition 3 >> condition 1",6455,108498,10
244,"f04_1_2","f04",1,2,"control","related","SUBJ OBJfix",1,"above","SUBJ OBJfix >> *OBJfix SUBJ","condition 1 >> condition 2",6292,128467,12
244,"f42_1_3","f42",1,3,"filler","unrelated (pseudo_manner)","?",3,"above","? >> grammatical","condition 3 >> condition 1",13661,142132,13
244,"f03_1_2","f03",1,2,"control","related","SUBJ OBJfix",1,"above","SUBJ OBJfix >> *OBJfix SUBJ","condition 1 >> condition 2",6181,155603,15
244,"f27_1_3","f27",1,3,"filler","pseudo_windef/CC","grammatical",1,"above","grammatical >> ?","condition 1 >> condition 3",8104,170258,17
244,"f14_1_2","f14",1,2,"control","unrelated","SUBJ OBJ",1,"above","SUBJ OBJ >> *OBJ SUBJ","condition 1 >> condition 2",5208,185614,19
244,"f24_1_2","f24",1,2,"attention","pseudo_windef","grammatical",1,"above","grammatical >> *","condition 1 >> condition 2",20954,206571,20
244,"f09_1_2","f09",1,2,"control","unrelated","SUBJ OBJ",1,"above","SUBJ OBJ >> *OBJ SUBJ","condition 1 >> condition 2",7641,214215,21
244,"f41_1_3","f41",1,3,"filler","unrelated (pseudo_CC)","grammatical",1,"above","grammatical >> ?","condition 1 >> condition 3",7394,229572,23
244,"f18_1_2","f18",1,2,"control","unrelated","grammatical",1,"above","grammatical >> *","condition 1 >> condition 2",17939,252876,25
244,"f37_1_2","f37",1,2,"attention","pseudo_COM/manner","grammatical",1,"below","* >> grammatical","condition 2 >> condition 1",13834,274656,27
244,"f12_1_2","f12",1,2,"control","unrelated","SUBJ OBJ",1,"below","*OBJ SUBJ >> SUBJ OBJ","condition 2 >> condition 1",17174,300692,29
244,"f25_1_3","f25",1,3,"filler","pseudo_windef","grammatical",1,"below","? >> grammatical","condition 3 >> condition 1",5780,313715,31
244,"f15_1_2","f15",1,2,"control","unrelated","SUBJ OBJ",1,"below","*OBJ SUBJ >> SUBJ OBJ","condition 2 >> condition 1",4859,318577,32
244,"f26_1_2","f26",1,2,"attention","pseudo_windef/TEMP","grammatical",1,"below","* >> grammatical","condition 2 >> condition 1",15295,333875,33
244,"f11_1_2","f11",1,2,"control","unrelated","SUBJ OBJ",1,"above","SUBJ OBJ >> *OBJ SUBJ","condition 1 >> condition 2",9788,351332,35
244,"f48_1_2","f48",1,2,"attention","unrelated","grammatical",1,"below","* >> grammatical","condition 2 >> condition 1",8641,359975,36
244,"f06_1_2","f06",1,2,"control","related","SUBJ OBJfix",1,"below","*OBJfix SUBJ >> SUBJ OBJfix","condition 2 >> condition 1",8232,368210,37
244,"f47_1_3","f47",1,3,"filler","unrelated","grammatical",1,"below","? >> grammatical","condition 3 >> condition 1",7831,376046,38
244,"f13_1_2","f13",1,2,"control","unrelated","SUBJ OBJ",1,"below","*OBJ SUBJ >> SUBJ OBJ","condition 2 >> condition 1",3408,379456,39
244,"f39_1_2","f39",1,2,"filler","pseudo_manner/INSTR","grammatical",1,"below","* >> grammatical","condition 2 >> condition 1",8083,387543,40
244,"f16_1_2","f16",1,2,"control","unrelated","SUBJ OBJ",1,"above","SUBJ OBJ >> *OBJ SUBJ","condition 1 >> condition 2",5245,392790,41
244,"f40_1_3","f40",1,3,"filler","unrelated (pseudo_TEMP)","grammatical",1,"below","? >> grammatical","condition 3 >> condition 1",5133,407664,43
244,"f10_1_2","f10",1,2,"control","unrelated","SUBJ OBJ",1,"above","SUBJ OBJ >> *OBJ SUBJ","condition 1 >> condition 2",6592,423593,45
244,"f33_1_3","f33",1,3,"filler","unrelated (pseudo_TEMP)","grammatical",1,"below","? >> grammatical","condition 3 >> condition 1",8059,431655,46
244,"f01_1_2","f01",1,2,"control","related","SUBJ OBJfix",1,"below","*OBJfix SUBJ >> SUBJ OBJfix","condition 2 >> condition 1",4980,445446,48
244,"f31_1_3","f31",1,3,"filler","unrelated","grammatical",1,"below","? >> grammatical","condition 3 >> condition 1",4600,450048,49
244,"f05_1_2","f05",1,2,"control","related","SUBJ OBJfix",1,"below","*OBJfix SUBJ >> SUBJ OBJfix","condition 2 >> condition 1",8168,467857,51
244,"f30_1_3","f30",1,3,"filler","pseudo_manner/COM","grammatical",1,"below","? >> grammatical","condition 3 >> condition 1",10594,485085,53
244,"f19_1_2","f19",1,2,"control","related","grammatical",1,"above","grammatical >> *","condition 1 >> condition 2",7096,492183,54
244,"f35_1_3","f35",1,3,"filler","unrelated","grammatical",1,"below","? >> grammatical","condition 3 >> condition 1",4512,502161,56
244,"f02_1_2","f02",1,2,"control","related","SUBJ OBJfix",1,"above","SUBJ OBJfix >> *OBJfix SUBJ","condition 1 >> condition 2",6450,521528,58
244,"f21_1_3","f21",1,3,"filler","pseudo_windef","grammatical",1,"above","grammatical >> ?","condition 1 >> condition 3",8258,534198,60
244,"f07_1_2","f07",1,2,"control","related","SUBJ OBJfix",1,"above","SUBJ OBJfix >> *OBJfix SUBJ","condition 1 >> condition 2",6594,540794,61
244,"f22_1_2","f22",1,2,"attention","pseudo_windef","grammatical",1,"above","grammatical >> *","condition 1 >> condition 2",9203,557393,63
244,"f20_1_2","f20",1,2,"control","unrelated","grammatical",1,"above","grammatical >> *","condition 1 >> condition 2",8003,565397,64
244,"f32_1_2","f32",1,2,"filler","unrelated (pseudo_TEMP)","grammatical",1,"below","* >> grammatical","condition 2 >> condition 1",8884,584538,66
244,"f17_1_2","f17",1,2,"control","related","grammatical",1,"below","* >> grammatical","condition 2 >> condition 1",7091,601523,68
244,"f43_1_2","f43",1,2,"attention","unrelated (pseudo_manner)","grammatical",1,"above","grammatical >> *","condition 1 >> condition 2",49470,650994,69
244,"f46_1_3","f46",1,3,"filler","unrelated","grammatical",1,"below","? >> grammatical","condition 3 >> condition 1",5619,663538,71
243,"f28_1_3","f28",1,3,"calibration","unrelated","grammatical",1,"above","grammatical >> ?","condition 1 >> condition 3",8297,8301,0
243,"f38_1_3","f38",1,3,"calibration","unrelated","grammatical",1,"above","grammatical >> ?","condition 1 >> condition 3",8385,16689,1
243,"f29_1_2","f29",1,2,"calibration","unrelated","grammatical",1,"above","grammatical >> *","condition 1 >> condition 2",7957,24649,2
243,"f36_1_3","f36",1,3,"calibration","unrelated","grammatical",1,"below","? >> grammatical","condition 3 >> condition 1",7216,31868,3
243,"f45_1_3","f45",1,3,"calibration","unrelated","grammatical",1,"below","? >> grammatical","condition 3 >> condition 1",8989,40858,4
243,"f23_1_2","f23",1,2,"calibration","pseudo_windef","grammatical",1,"above","grammatical >> *","condition 1 >> condition 2",10455,51314,5
243,"f42_1_3","f42",1,3,"filler","unrelated (pseudo_manner)","grammatical",1,"below","? >> grammatical","condition 3 >> condition 1",13198,64515,6
243,"f08_1_2","f08",1,2,"control","related","SUBJ OBJfix",1,"below","*OBJfix SUBJ >> SUBJ OBJfix","condition 2 >> condition 1",9436,85779,8
243,"f35_1_3","f35",1,3,"filler","unrelated","grammatical",1,"above","grammatical >> ?","condition 1 >> condition 3",9565,104737,10
243,"f20_1_2","f20",1,2,"control","unrelated","grammatical",1,"above","grammatical >> *","condition 1 >> condition 2",7502,112242,11
243,"f41_1_3","f41",1,3,"filler","unrelated (pseudo_CC)","grammatical",1,"below","? >> grammatical","condition 3 >> condition 1",9058,144262,13
243,"f04_1_2","f04",1,2,"control","related","SUBJ OBJfix",1,"above","SUBJ OBJfix >> *OBJfix SUBJ","condition 1 >> condition 2",7117,151380,14
243,"f25_1_3","f25",1,3,"filler","pseudo_windef","grammatical",1,"above","grammatical >> ?","condition 1 >> condition 3",6492,157873,15
243,"f15_1_2","f15",1,2,"control","unrelated","SUBJ OBJ",1,"below","*OBJ SUBJ >> SUBJ OBJ","condition 2 >> condition 1",7990,179953,17
243,"f32_1_2","f32",1,2,"filler","unrelated (pseudo_TEMP)","grammatical",1,"below","* >> grammatical","condition 2 >> condition 1",6750,196093,19
243,"f14_1_2","f14",1,2,"control","unrelated","SUBJ OBJ",1,"below","*OBJ SUBJ >> SUBJ OBJ","condition 2 >> condition 1",5971,228503,21
243,"f31_1_3","f31",1,3,"filler","unrelated","grammatical",1,"above","grammatical >> ?","condition 1 >> condition 3",12139,251133,23
243,"f10_1_2","f10",1,2,"control","unrelated","SUBJ OBJ",1,"below","*OBJ SUBJ >> SUBJ OBJ","condition 2 >> condition 1",5888,257021,24
243,"f26_1_2","f26",1,2,"attention","pseudo_windef/TEMP","grammatical",1,"below","* >> grammatical","condition 2 >> condition 1",10830,281365,26
243,"f03_1_2","f03",1,2,"control","related","SUBJ OBJfix",1,"below","*OBJfix SUBJ >> SUBJ OBJfix","condition 2 >> condition 1",9908,291276,27
243,"f48_1_2","f48",1,2,"attention","unrelated","grammatical",1,"below","* >> grammatical","condition 2 >> condition 1",12205,318175,29
243,"f07_1_2","f07",1,2,"control","related","SUBJ OBJfix",1,"above","SUBJ OBJfix >> *OBJfix SUBJ","condition 1 >> condition 2",6287,340177,31
243,"f44_1_3","f44",1,3,"filler","unrelated","grammatical",1,"above","grammatical >> ?","condition 1 >> condition 3",7454,347631,32
243,"f02_1_2","f02",1,2,"control","related","SUBJ OBJfix",1,"below","*OBJfix SUBJ >> SUBJ OBJfix","condition 2 >> condition 1",5540,361922,34
243,"f22_1_2","f22",1,2,"attention","pseudo_windef","grammatical",1,"above","grammatical >> *","condition 1 >> condition 2",9122,371046,35
243,"f09_1_2","f09",1,2,"control","unrelated","SUBJ OBJ",1,"below","*OBJ SUBJ >> SUBJ OBJ","condition 2 >> condition 1",6925,393501,37
243,"f46_1_3","f46",1,3,"filler","unrelated","grammatical",1,"below","? >> grammatical","condition 3 >> condition 1",8153,409455,39
243,"f16_1_2","f16",1,2,"control","unrelated","SUBJ OBJ",1,"below","*OBJ SUBJ >> SUBJ OBJ","condition 2 >> condition 1",8805,427639,41
243,"f34_1_3","f34",1,3,"filler","unrelated (pseudo_TEMP/CC)","grammatical",1,"below","? >> grammatical","condition 3 >> condition 1",25087,452728,42
243,"f17_1_2","f17",1,2,"control","related","grammatical",1,"above","grammatical >> *","condition 1 >> condition 2",6106,458837,43
243,"f37_1_2","f37",1,2,"attention","pseudo_COM/manner","grammatical",1,"below","* >> grammatical","condition 2 >> condition 1",15645,474483,44
243,"f13_1_2","f13",1,2,"control","unrelated","SUBJ OBJ",1,"below","*OBJ SUBJ >> SUBJ OBJ","condition 2 >> condition 1",5554,480039,45
243,"f30_1_3","f30",1,3,"filler","pseudo_manner/COM","grammatical",1,"above","grammatical >> ?","condition 1 >> condition 3",9767,499457,47
243,"f05_1_2","f05",1,2,"control","related","SUBJ OBJfix",1,"below","*OBJfix SUBJ >> SUBJ OBJfix","condition 2 >> condition 1",6849,513863,49
243,"f21_1_3","f21",1,3,"filler","pseudo_windef","grammatical",1,"below","? >> grammatical","condition 3 >> condition 1",8490,522354,50
243,"f06_1_2","f06",1,2,"control","related","SUBJ OBJfix",1,"below","*OBJfix SUBJ >> SUBJ OBJfix","condition 2 >> condition 1",6699,536243,52
243,"f27_1_3","f27",1,3,"filler","pseudo_windef/CC","grammatical",1,"above","grammatical >> ?","condition 1 >> condition 3",12101,562115,54
243,"f19_1_2","f19",1,2,"control","related","grammatical",1,"above","grammatical >> *","condition 1 >> condition 2",10197,572313,55
243,"f40_1_3","f40",1,3,"filler","unrelated (pseudo_TEMP)","grammatical",1,"below","? >> grammatical","condition 3 >> condition 1",7552,596107,57
243,"f11_1_2","f11",1,2,"control","unrelated","SUBJ OBJ",1,"below","*OBJ SUBJ >> SUBJ OBJ","condition 2 >> condition 1",6091,611989,59
243,"f43_1_2","f43",1,2,"attention","unrelated (pseudo_manner)","grammatical",1,"above","grammatical >> *","condition 1 >> condition 2",29792,641782,60
243,"f01_1_2","f01",1,2,"control","related","SUBJ OBJfix",1,"above","SUBJ OBJfix >> *OBJfix SUBJ","condition 1 >> condition 2",7821,667931,62
243,"f33_1_3","f33",1,3,"filler","unrelated (pseudo_TEMP)","grammatical",1,"below","? >> grammatical","condition 3 >> condition 1",5914,673846,63
243,"f18_1_2","f18",1,2,"control","unrelated","grammatical",1,"above","grammatical >> *","condition 1 >> condition 2",8321,694371,65
243,"f47_1_3","f47",1,3,"filler","unrelated","grammatical",1,"below","? >> grammatical","condition 3 >> condition 1",5666,700037,66
243,"f12_1_2","f12",1,2,"control","unrelated","SUBJ OBJ",1,"above","SUBJ OBJ >> *OBJ SUBJ","condition 1 >> condition 2",8212,718556,68
243,"f39_1_2","f39",1,2,"filler","pseudo_manner/INSTR","grammatical",1,"below","* >> grammatical","condition 2 >> condition 1",33182,760090,70
243,"f24_1_2","f24",1,2,"attention","pseudo_windef","grammatical",1,"below","* >> grammatical","condition 2 >> condition 1",7185,767276,71
242,"f29_1_2","f29",1,2,"calibration","unrelated","grammatical",1,"below","* >> grammatical","condition 2 >> condition 1",12693,12695,0
242,"f38_1_3","f38",1,3,"calibration","unrelated","grammatical",1,"above","grammatical >> ?","condition 1 >> condition 3",12591,25288,1
242,"f28_1_3","f28",1,3,"calibration","unrelated","grammatical",1,"below","? >> grammatical","condition 3 >> condition 1",14570,39868,2
242,"f36_1_3","f36",1,3,"calibration","unrelated","grammatical",1,"above","grammatical >> ?","condition 1 >> condition 3",11945,51820,3
242,"f23_1_2","f23",1,2,"calibration","pseudo_windef","grammatical",1,"above","grammatical >> *","condition 1 >> condition 2",10237,62067,4
242,"f45_1_3","f45",1,3,"calibration","unrelated","grammatical",1,"below","? >> grammatical","condition 3 >> condition 1",10988,73060,5
242,"f44_1_3","f44",1,3,"filler","unrelated","grammatical",1,"above","grammatical >> ?","condition 1 >> condition 3",8885,81953,6
242,"f04_1_2","f04",1,2,"control","related","SUBJ OBJfix",1,"below","*OBJfix SUBJ >> SUBJ OBJfix","condition 2 >> condition 1",9516,112511,8
242,"f46_1_3","f46",1,3,"filler","unrelated","grammatical",1,"below","? >> grammatical","condition 3 >> condition 1",9562,136976,10
242,"f16_1_2","f16",1,2,"control","unrelated","SUBJ OBJ",1,"above","SUBJ OBJ >> *OBJ SUBJ","condition 1 >> condition 2",7643,144626,11
242,"f42_1_3","f42",1,3,"filler","unrelated (pseudo_manner)","grammatical",1,"above","grammatical >> ?","condition 1 >> condition 3",14099,171305,13
242,"f02_1_2","f02",1,2,"control","related","SUBJ OBJfix",1,"below","*OBJfix SUBJ >> SUBJ OBJfix","condition 2 >> condition 1",7438,186203,15
242,"f21_1_3","f21",1,3,"filler","pseudo_windef","grammatical",1,"below","? >> grammatical","condition 3 >> condition 1",13209,207557,17
242,"f13_1_2","f13",1,2,"control","unrelated","SUBJ OBJ",1,"below","*OBJ SUBJ >> SUBJ OBJ","condition 2 >> condition 1",5939,227553,19
242,"f48_1_2","f48",1,2,"attention","unrelated","grammatical",1,"above","grammatical >> *","condition 1 >> condition 2",16434,251800,21
242,"f15_1_2","f15",1,2,"control","unrelated","SUBJ OBJ",1,"below","*OBJ SUBJ >> SUBJ OBJ","condition 2 >> condition 1",10376,262181,22
242,"f39_1_2","f39",1,2,"filler","pseudo_manner/INSTR","grammatical",1,"above","grammatical >> *","condition 1 >> condition 2",12007,284118,24
242,"f11_1_2","f11",1,2,"control","unrelated","SUBJ OBJ",1,"below","*OBJ SUBJ >> SUBJ OBJ","condition 2 >> condition 1",5245,296891,26
242,"f40_1_3","f40",1,3,"filler","unrelated (pseudo_TEMP)","grammatical",1,"below","? >> grammatical","condition 3 >> condition 1",9560,306456,27
242,"f06_1_2","f06",1,2,"control","related","SUBJ OBJfix",1,"above","SUBJ OBJfix >> *OBJfix SUBJ","condition 1 >> condition 2",9124,325901,29
242,"f22_1_2","f22",1,2,"attention","pseudo_windef","grammatical",1,"below","* >> grammatical","condition 2 >> condition 1",16401,342309,30
242,"f09_1_2","f09",1,2,"control","unrelated","SUBJ OBJ",1,"below","*OBJ SUBJ >> SUBJ OBJ","condition 2 >> condition 1",6673,362622,32
242,"f30_1_3","f30",1,3,"filler","pseudo_manner/COM","?",3,"below","grammatical >> ?","condition 1 >> condition 3",13920,386254,34
242,"f10_1_2","f10",1,2,"control","unrelated","SUBJ OBJ",1,"below","*OBJ SUBJ >> SUBJ OBJ","condition 2 >> condition 1",6183,392444,35
242,"f32_1_2","f32",1,2,"filler","unrelated (pseudo_TEMP)","grammatical",1,"above","grammatical >> *","condition 1 >> condition 2",5165,402176,37
242,"f08_1_2","f08",1,2,"control","related","SUBJ OBJfix",1,"below","*OBJfix SUBJ >> SUBJ OBJfix","condition 2 >> condition 1",6253,413572,39
242,"f37_1_2","f37",1,2,"attention","pseudo_COM/manner","*",2,"below","grammatical >> *","condition 1 >> condition 2",10339,423918,40
242,"f01_1_2","f01",1,2,"control","related","SUBJ OBJfix",1,"below","*OBJfix SUBJ >> SUBJ OBJfix","condition 2 >> condition 1",5398,429323,41
242,"f24_1_2","f24",1,2,"attention","pseudo_windef","grammatical",1,"below","* >> grammatical","condition 2 >> condition 1",5120,434448,42
242,"f03_1_2","f03",1,2,"control","related","SUBJ OBJfix",1,"above","SUBJ OBJfix >> *OBJfix SUBJ","condition 1 >> condition 2",9958,444413,43
242,"f25_1_3","f25",1,3,"filler","pseudo_windef","grammatical",1,"above","grammatical >> ?","condition 1 >> condition 3",15502,459921,44
242,"f12_1_2","f12",1,2,"control","unrelated","SUBJ OBJ",1,"below","*OBJ SUBJ >> SUBJ OBJ","condition 2 >> condition 1",4554,472519,46
242,"f33_1_3","f33",1,3,"filler","unrelated (pseudo_TEMP)","grammatical",1,"below","? >> grammatical","condition 3 >> condition 1",6835,485930,48
242,"f05_1_2","f05",1,2,"control","related","SUBJ OBJfix",1,"below","*OBJfix SUBJ >> SUBJ OBJfix","condition 2 >> condition 1",7072,493008,49
242,"f31_1_3","f31",1,3,"filler","unrelated","grammatical",1,"above","grammatical >> ?","condition 1 >> condition 3",5374,498386,50
242,"f07_1_2","f07",1,2,"control","related","SUBJ OBJfix",1,"above","SUBJ OBJfix >> *OBJfix SUBJ","condition 1 >> condition 2",6637,511951,52
242,"f26_1_2","f26",1,2,"attention","pseudo_windef/TEMP","*",2,"below","grammatical >> *","condition 1 >> condition 2",9267,521223,53
242,"f20_1_2","f20",1,2,"control","unrelated","grammatical",1,"below","* >> grammatical","condition 2 >> condition 1",11426,539858,55
242,"f34_1_3","f34",1,3,"filler","unrelated (pseudo_TEMP/CC)","grammatical",1,"below","? >> grammatical","condition 3 >> condition 1",8450,554750,57
242,"f18_1_2","f18",1,2,"control","unrelated","grammatical",1,"below","* >> grammatical","condition 2 >> condition 1",5279,571575,59
242,"f47_1_3","f47",1,3,"filler","unrelated","grammatical",1,"below","? >> grammatical","condition 3 >> condition 1",10241,588144,61
242,"f17_1_2","f17",1,2,"control","related","grammatical",1,"below","* >> grammatical","condition 2 >> condition 1",4805,592955,62
242,"f43_1_2","f43",1,2,"attention","unrelated (pseudo_manner)","grammatical",1,"above","grammatical >> *","condition 1 >> condition 2",12700,615735,64
242,"f19_1_2","f19",1,2,"control","related","grammatical",1,"below","* >> grammatical","condition 2 >> condition 1",6213,627774,66
242,"f41_1_3","f41",1,3,"filler","unrelated (pseudo_CC)","grammatical",1,"below","? >> grammatical","condition 3 >> condition 1",6076,633857,67
242,"f14_1_2","f14",1,2,"control","unrelated","SUBJ OBJ",1,"above","SUBJ OBJ >> *OBJ SUBJ","condition 1 >> condition 2",7643,641504,68
242,"f27_1_3","f27",1,3,"filler","pseudo_windef/CC","grammatical",1,"above","grammatical >> ?","condition 1 >> condition 3",8242,649750,69
242,"f35_1_3","f35",1,3,"filler","unrelated","grammatical",1,"above","grammatical >> ?","condition 1 >> condition 3",6469,662783,71
